timestamp,gyro_x,gyro_y,gyro_z
163700.0,-0.12,0.0,0.0
163800.0,0.37,0.37,0.06
163900.0,0.06,0.18,0.06
164000.0,0.37,0.31,0.12
164100.0,-0.18,-0.61,0.06
164200.0,-0.18,0.12,0.0
164300.0,0.0,0.0,0.06
164400.0,-0.55,0.12,-0.12
164500.0,-0.55,-0.12,-0.06
164600.0,-0.12,-0.12,0.0
164700.0,0.0,0.06,0.06
164800.0,1.34,1.4,0.24
164900.0,-0.18,0.12,0.06
165000.0,0.12,0.0,0.06
165100.0,0.06,0.06,0.12
165200.0,0.24,0.18,0.12
165300.0,0.06,0.12,0.12
165400.0,0.24,0.24,0.06
165500.0,0.18,0.18,0.06
165600.0,0.12,0.18,0.06
165700.0,0.06,0.18,0.06
165800.0,0.31,0.37,0.06
165900.0,-0.06,-0.06,0.06
166000.0,0.06,0.0,0.12
166100.0,0.24,0.24,0.06
166200.0,0.12,0.12,0.12
166300.0,0.31,0.24,0.12
166400.0,0.18,0.12,0.12
166500.0,0.06,0.12,0.12
166600.0,0.12,0.06,0.06
166700.0,0.12,0.12,0.12
166800.0,0.06,0.12,0.12
166900.0,0.06,0.18,0.18
167000.0,0.06,0.18,0.12
167100.0,0.18,0.18,0.06
167200.0,-0.06,0.18,0.12
167300.0,0.18,0.18,0.12
167400.0,0.18,0.12,0.06
167500.0,0.18,0.12,0.12
167600.0,0.12,0.18,0.06
167700.0,0.18,0.24,0.12
167800.0,0.18,0.18,0.06
167900.0,0.12,0.12,0.12
168000.0,0.24,0.24,0.06
168100.0,0.24,0.31,0.12
168200.0,0.12,0.06,0.06
168300.0,0.12,0.12,0.06
168400.0,0.18,0.18,0.06
168500.0,0.12,0.06,0.06
168600.0,0.12,0.12,0.12
168700.0,0.18,0.24,0.06
168800.0,0.12,0.18,0.06
168900.0,0.12,0.18,0.06
169000.0,0.12,0.12,0.06
169100.0,0.06,0.12,0.06
169200.0,0.12,0.18,0.12
169300.0,0.12,0.0,0.12
169400.0,0.18,0.12,0.12
169500.0,0.31,0.31,0.12
169600.0,0.12,0.24,0.06
169700.0,0.18,0.24,0.06
169800.0,0.31,0.24,0.12
169900.0,0.18,0.12,0.12
170000.0,0.12,0.18,0.12
170100.0,0.18,0.12,0.12
170200.0,0.18,0.24,0.06
170300.0,0.12,0.18,0.06
170400.0,0.31,0.12,0.12
170500.0,0.06,0.06,0.12
170600.0,0.18,0.18,0.12
170700.0,0.18,0.31,0.06
170800.0,0.18,0.12,0.12
170900.0,0.18,0.06,0.12
171000.0,0.12,0.12,0.06
171100.0,0.12,0.12,0.06
171200.0,0.06,0.18,0.06
171300.0,0.12,0.12,0.06
171400.0,0.18,0.24,0.12
171500.0,0.67,1.16,0.24
171600.0,0.31,0.43,0.18
171700.0,-2.99,0.18,-0.98
171800.0,0.49,1.04,0.06
171900.0,-0.43,-0.43,0.06
172000.0,0.06,0.31,0.06
172100.0,2.75,1.28,0.49
172200.0,-0.31,0.0,0.06
172300.0,0.18,0.49,0.06
172400.0,0.24,0.18,0.12
172500.0,0.06,0.18,0.12
172600.0,0.12,0.12,0.06
172700.0,0.31,0.31,0.12
172800.0,-0.12,0.12,0.06
172900.0,0.31,0.31,0.12
173000.0,0.06,0.12,0.06
173100.0,0.0,0.24,0.0
173200.0,0.37,0.24,0.12
173300.0,-0.06,-0.18,0.06
173400.0,0.73,0.24,0.24
173500.0,0.73,0.0,0.31
173600.0,-0.12,0.06,0.06
173700.0,0.12,0.18,0.12
173800.0,0.18,0.24,0.06
173900.0,0.12,0.18,0.06
174000.0,-0.06,0.18,0.24
174100.0,0.24,0.12,0.06
174200.0,-0.06,0.12,0.06
174300.0,0.18,0.18,0.06
174400.0,0.0,0.06,0.06
174500.0,0.31,0.18,0.12
174600.0,0.18,0.24,0.06
174700.0,0.37,0.49,0.12
174800.0,-0.12,0.18,0.06
174900.0,1.46,1.1,0.24
175000.0,-0.06,0.43,-0.06
175100.0,-0.06,0.06,0.0
175200.0,0.0,0.18,0.12
175300.0,-0.06,0.06,0.06
175400.0,-0.85,0.79,-0.06
175500.0,0.31,0.73,0.12
175600.0,0.31,0.18,0.12
175700.0,-0.37,-0.24,0.06
175800.0,-0.18,-0.24,0.06
175900.0,0.0,0.0,0.06
176000.0,-0.67,-0.37,-0.18
176100.0,-0.31,0.18,0.06
176200.0,0.31,0.24,0.06
176300.0,0.18,0.18,0.06
176400.0,-0.06,0.0,0.06
176500.0,-0.06,0.0,0.06
176600.0,0.18,0.24,0.12
176700.0,0.31,0.31,0.12
176800.0,0.37,0.18,0.18
176900.0,0.31,0.18,0.18
177000.0,-0.06,-0.06,0.06
177100.0,1.22,0.43,0.24
177200.0,0.12,0.31,0.12
177300.0,0.0,0.18,0.06
177400.0,0.18,0.24,0.12
177500.0,0.12,0.18,0.06
177600.0,0.37,0.37,0.12
177700.0,0.0,0.06,0.06
177800.0,0.06,0.24,0.0
177900.0,-1.46,0.55,-0.67
178000.0,0.49,0.79,0.06
178100.0,0.61,0.43,0.18
178200.0,0.18,0.18,0.12
178300.0,0.0,0.0,0.06
178400.0,0.31,0.18,0.06
178500.0,0.06,0.12,0.12
178600.0,0.18,0.18,0.12
178700.0,0.18,0.12,0.06
178800.0,0.06,0.06,0.12
178900.0,0.06,0.12,0.06
179000.0,0.12,0.12,0.06
179100.0,0.12,0.12,0.12
179200.0,0.18,0.24,0.06
179300.0,0.24,0.18,0.12
179400.0,0.12,0.24,0.12
179500.0,0.12,0.18,0.06
179600.0,-2.38,0.79,-0.49
179700.0,-0.55,0.31,-0.06
179800.0,0.61,0.12,0.18
179900.0,0.49,0.49,0.12
180000.0,-1.22,-0.67,-0.24
180100.0,0.43,0.43,0.18
180200.0,0.12,0.18,0.06
180300.0,0.12,0.24,0.06
180400.0,0.18,0.24,0.06
180500.0,0.06,0.0,0.12
180600.0,0.18,0.18,0.12
180700.0,0.06,0.18,0.06
180800.0,0.06,0.12,0.0
180900.0,0.06,0.06,0.06
181000.0,0.06,0.18,0.06
181100.0,0.06,0.0,0.06
181200.0,-0.31,-0.12,0.06
181300.0,0.24,0.24,0.06
181400.0,-0.18,-0.12,0.06
181500.0,-0.85,-0.49,-0.18
181600.0,0.24,0.06,0.18
181700.0,0.31,0.31,0.12
181800.0,2.14,-0.67,0.12
181900.0,-1.16,0.79,-0.24
182000.0,0.43,0.37,0.18
182100.0,0.85,0.73,0.18
182200.0,-0.12,0.12,0.12
182300.0,0.49,0.49,0.06
182400.0,0.12,0.55,0.0
182500.0,0.18,0.24,0.12
182600.0,0.43,0.61,0.18
182700.0,0.18,0.06,0.06
182800.0,-0.18,0.12,0.06
182900.0,0.37,0.24,0.12
183000.0,-0.06,0.0,0.06
183100.0,0.06,-0.06,0.24
183200.0,0.18,0.0,0.06
183300.0,-0.06,0.12,0.0
183400.0,0.18,0.12,0.06
183500.0,0.37,0.37,0.06
183600.0,0.18,0.24,0.06
183700.0,0.12,0.18,0.06
183800.0,0.37,0.37,0.06
183900.0,0.12,0.12,0.06
184000.0,0.12,0.12,0.06
184100.0,0.18,0.12,0.06
184200.0,0.06,0.18,0.06
184300.0,0.18,0.18,0.06
184400.0,0.18,0.31,0.12
184500.0,0.12,0.12,0.12
184600.0,0.18,0.24,0.06
184700.0,0.12,0.24,0.0
184800.0,0.12,0.0,0.12
184900.0,0.0,0.06,0.06
185000.0,0.12,0.0,0.12
185100.0,0.0,0.06,0.06
185200.0,0.18,0.24,0.12
185300.0,0.18,0.24,0.12
185400.0,0.12,0.18,0.06
185500.0,0.18,0.18,0.12
185600.0,0.24,0.31,0.06
185700.0,0.24,0.24,0.06
185800.0,0.18,0.18,0.06
185900.0,0.06,0.12,0.12
186000.0,0.18,0.31,0.06
186100.0,0.24,0.18,0.12
186200.0,0.0,0.06,0.06
186300.0,0.12,0.12,0.06
186400.0,0.0,0.06,0.06
186500.0,0.24,0.24,0.06
186600.0,0.24,0.18,0.12
186700.0,0.24,0.06,0.12
186800.0,0.12,0.18,0.12
186900.0,0.0,0.12,0.06
187000.0,0.37,0.49,0.12
187100.0,0.31,0.43,0.06
187200.0,0.31,0.12,0.12
187300.0,-0.31,-0.55,0.06
187400.0,0.18,0.43,0.18
187500.0,0.24,0.24,0.06
187600.0,0.0,0.18,0.06
187700.0,0.18,0.31,0.12
187800.0,0.24,0.31,0.12
187900.0,0.12,0.24,0.12
188000.0,-0.06,0.06,0.06
188100.0,0.31,0.43,0.12
188200.0,1.77,-0.12,0.31
188300.0,0.37,0.67,0.06
188400.0,0.18,0.12,0.12
188500.0,0.06,0.24,0.06
188600.0,0.0,0.0,0.06
188700.0,0.43,0.55,0.06
188800.0,-1.89,0.43,-0.61
188900.0,0.61,0.73,0.12
189000.0,0.49,0.61,0.18
189100.0,0.0,0.06,0.06
189200.0,0.24,0.24,0.12
189300.0,0.12,0.06,0.12
189400.0,0.06,0.06,0.06
189500.0,1.1,0.43,0.24
189600.0,-0.18,-0.06,0.06
189700.0,0.24,0.37,0.12
189800.0,0.18,0.18,0.06
189900.0,0.31,0.24,0.12
190000.0,-0.06,0.0,0.06
190100.0,0.18,0.18,0.06
190200.0,-0.12,0.12,0.0
190300.0,-1.46,-1.04,-0.49
190400.0,-0.49,-0.06,0.0
190500.0,0.18,0.0,0.06
190600.0,0.06,0.12,0.06
190700.0,0.18,0.18,0.06
190800.0,0.24,0.18,0.06
190900.0,0.06,0.12,0.06
191000.0,0.12,0.24,0.06
191100.0,0.24,0.24,0.12
191200.0,0.18,0.24,0.06
191300.0,0.06,0.06,0.06
191400.0,0.24,0.18,0.12
191500.0,0.12,0.06,0.06
191600.0,0.06,0.18,0.06
191700.0,0.12,0.06,0.06
191800.0,-0.31,0.37,-0.06
191900.0,0.37,0.37,0.06
192000.0,0.12,0.0,0.06
192100.0,0.18,0.31,0.06
192200.0,0.24,0.18,0.12
192300.0,0.31,0.31,0.12
192400.0,0.0,-0.06,0.06
192500.0,0.18,0.18,0.06
192600.0,0.0,0.06,0.06
192700.0,0.12,0.24,0.06
192800.0,-0.18,0.0,0.0
192900.0,0.18,-0.18,0.06
193000.0,0.0,-0.06,0.06
193100.0,0.67,1.16,0.31
193200.0,-0.37,-0.24,-0.06
193300.0,0.24,0.24,0.06
193400.0,0.0,0.0,0.06
193500.0,0.18,0.12,0.12
193600.0,0.0,0.06,0.12
193700.0,0.18,0.18,0.12
193800.0,0.12,0.0,0.06
193900.0,0.06,0.12,0.06
194000.0,0.31,0.37,0.12
194100.0,0.0,0.12,0.0
194200.0,0.12,0.43,0.06
194300.0,0.06,0.49,0.0
194400.0,0.06,0.18,0.0
194500.0,0.18,0.24,0.06
194600.0,-1.71,-2.32,0.49
194700.0,-0.37,-0.79,0.06
194800.0,0.24,0.49,0.06
194900.0,0.12,0.24,0.06
195000.0,-0.31,-0.49,-0.12
195100.0,-0.24,0.0,0.06
195200.0,0.31,0.24,0.12
195300.0,0.0,0.06,0.12
195400.0,0.24,0.55,0.06
195500.0,1.65,2.2,0.31
195600.0,0.98,0.06,0.18
195700.0,0.24,0.43,0.0
195800.0,-0.43,0.67,-0.06
195900.0,-0.31,0.06,-0.12
196000.0,0.12,0.24,0.0
196100.0,0.12,0.31,0.06
196200.0,-0.12,0.06,0.0
196300.0,0.31,0.31,0.06
196400.0,0.85,2.01,0.06
196500.0,-0.85,-0.61,0.06
196600.0,0.37,0.31,0.06
196700.0,0.18,0.24,0.06
196800.0,0.0,0.12,0.06
196900.0,0.24,0.31,0.06
197000.0,0.0,0.06,0.06
197100.0,0.12,0.18,0.06
197200.0,0.37,0.31,0.06
197300.0,0.18,0.24,0.12
197400.0,-0.12,0.06,0.0
197500.0,-0.06,0.06,0.0
197600.0,-0.37,-0.18,0.0
197700.0,0.31,0.18,0.12
197800.0,-3.78,-0.92,-1.16
197900.0,-0.24,0.49,0.12
198000.0,0.12,0.06,0.18
198100.0,0.06,-0.06,0.06
198200.0,0.37,0.31,0.12
198300.0,2.14,1.71,0.37
198400.0,0.06,0.31,0.06
198500.0,0.12,-0.06,0.06
198600.0,-0.12,-0.06,0.06
198700.0,0.92,0.85,0.31
198800.0,0.98,0.67,0.18
198900.0,0.43,0.43,0.12
199000.0,0.31,0.24,0.12
199100.0,-0.31,-0.49,0.06
199200.0,-0.55,-0.31,-0.06
199300.0,1.28,1.04,0.31
199400.0,0.31,0.37,0.0
199500.0,0.18,0.24,0.12
199600.0,-0.37,-0.24,0.0
199700.0,-2.62,-2.75,0.31
199800.0,0.24,0.49,0.12
199900.0,0.37,0.31,0.06
200000.0,0.12,0.24,0.06
200100.0,0.18,0.24,0.18
200200.0,0.31,0.31,0.06
200300.0,0.0,0.18,0.12
200400.0,0.06,0.18,0.06
200500.0,0.06,0.24,0.06
200600.0,-0.12,0.06,0.12
200700.0,0.18,0.24,0.06
200800.0,0.12,-0.85,0.37
200900.0,0.24,0.0,0.12
201000.0,0.31,0.43,0.06
201100.0,0.12,0.18,0.06
201200.0,1.1,0.73,0.37
201300.0,0.0,0.0,0.06
201400.0,0.18,0.18,0.06
201500.0,0.06,0.06,0.12
201600.0,3.3,-0.31,0.73
201700.0,0.92,0.49,0.12
201800.0,-0.31,0.06,0.0
201900.0,0.06,0.12,0.12
202000.0,0.0,0.31,0.06
202100.0,-0.12,-0.12,0.06
202200.0,0.24,-0.67,0.43
202300.0,0.43,0.0,0.12
202400.0,-0.18,-0.24,0.12
202500.0,0.06,0.0,0.06
202600.0,0.0,0.12,0.06
202700.0,1.71,2.14,0.24
202800.0,0.49,-0.12,0.12
202900.0,0.06,0.12,0.0
203000.0,-0.06,-0.06,0.06
203100.0,0.67,0.55,0.18
203200.0,-0.18,-0.24,0.0
203300.0,-0.49,-0.12,0.0
203400.0,-0.24,-0.06,0.06
203500.0,0.18,0.18,0.12
203600.0,1.53,0.37,-0.37
203700.0,-0.37,-0.24,0.0
203800.0,0.06,0.18,0.12
203900.0,0.37,0.12,0.12
204000.0,0.67,0.43,0.18
204100.0,1.04,0.24,0.43
204200.0,-0.61,-0.49,-0.12
204300.0,-0.37,0.85,-0.06
204400.0,-0.31,0.18,-0.12
204500.0,-0.18,0.43,0.0
204600.0,0.37,0.43,0.12
204700.0,-0.12,0.12,0.06
204800.0,-0.06,0.12,0.06
204900.0,0.37,0.24,0.06
205000.0,0.18,0.31,0.06
205100.0,0.43,0.31,0.06
205200.0,0.0,0.18,0.06
205300.0,-0.31,-15.56,-0.06
205400.0,-0.37,-0.61,-0.12
205500.0,-2.01,2.01,-0.43
205600.0,-0.98,-0.43,-0.12
205700.0,0.12,0.06,0.0
205800.0,0.24,-0.12,-0.06
205900.0,-3.97,1.34,-0.55
206000.0,-0.43,-1.59,-0.12
206100.0,-12.57,-23.74,-7.87
206200.0,-29.91,4.58,-0.37
206300.0,25.09,0.24,2.14
206400.0,-5.62,5.25,-0.37
206500.0,7.32,-11.84,0.79
206600.0,-7.57,-20.08,-1.83
206700.0,-5.07,-15.44,-8.67
206800.0,4.46,20.2,-2.26
206900.0,15.08,-1.71,-2.62
207000.0,126.22,50.11,7.93
207100.0,-97.11,13.18,-8.0
207200.0,73.36,-5.98,-15.56
207300.0,-21.48,-37.78,-0.12
207400.0,-53.47,-10.25,4.33
207500.0,-21.97,23.19,7.39
207600.0,3.54,19.71,-3.23
207700.0,-30.4,28.32,-59.39
207800.0,0.55,46.75,-0.79
207900.0,1.46,12.45,2.2
208000.0,1.77,7.08,-0.18
208100.0,0.85,2.38,0.0
208200.0,0.06,0.49,0.06
208300.0,0.12,0.49,0.0
208400.0,0.18,0.31,0.06
208500.0,0.06,0.43,0.0
208600.0,0.12,0.37,0.06
208700.0,0.12,0.31,0.06
208800.0,0.18,0.61,-0.06
208900.0,0.31,0.12,0.12
209000.0,0.0,0.49,0.06
209100.0,0.06,0.37,-0.12
209200.0,0.0,0.43,-0.06
209300.0,0.18,0.37,0.12
209400.0,-0.24,-0.18,0.0
209500.0,0.06,0.37,0.0
209600.0,0.06,0.18,0.0
209700.0,-0.06,0.12,0.0
209800.0,0.24,0.31,0.06
209900.0,0.24,0.24,-0.12
210000.0,0.49,0.0,-0.06
210100.0,0.24,0.24,0.06
210200.0,0.24,0.18,0.06
210300.0,0.18,0.18,0.18
210400.0,0.18,0.24,0.06
210500.0,0.37,0.12,0.0
210600.0,0.37,0.24,0.12
210700.0,0.37,0.24,0.0
210800.0,0.43,0.24,0.18
210900.0,0.55,0.0,0.0
211000.0,0.43,0.12,0.06
211100.0,0.61,0.0,0.06
211200.0,0.67,0.12,-0.06
211300.0,0.67,0.06,0.18
211400.0,0.24,0.06,0.12
211500.0,0.18,0.43,-0.06
211600.0,0.06,0.24,-0.06
211700.0,0.49,0.43,0.12
211800.0,0.24,-0.06,0.18
211900.0,0.12,0.24,0.06
212000.0,0.24,0.49,0.12
212100.0,0.0,0.24,0.0
212200.0,0.06,0.24,-0.06
212300.0,0.18,0.18,0.12
212400.0,-0.43,0.49,0.06
212500.0,-0.06,0.31,0.06
212600.0,0.37,0.24,0.12
212700.0,0.12,0.37,0.06
212800.0,0.12,0.12,0.06
212900.0,0.24,0.18,0.0
213000.0,0.37,0.31,0.0
213100.0,0.31,0.12,0.06
213200.0,0.43,0.18,0.18
213300.0,0.49,0.24,0.0
213400.0,0.31,0.24,0.06
213500.0,0.24,0.12,0.0
213600.0,0.31,0.18,0.0
213700.0,0.0,0.0,0.0
213800.0,0.24,0.37,0.12
213900.0,0.12,0.24,0.06
214000.0,-0.06,0.12,0.06
214100.0,0.18,0.18,0.12
214200.0,0.24,0.31,0.06
214300.0,0.18,0.18,0.06
214400.0,0.24,0.18,0.06
214500.0,0.12,0.18,0.12
214600.0,0.31,0.12,0.06
214700.0,0.18,0.06,0.12
214800.0,0.18,0.18,0.12
214900.0,0.0,0.24,0.12
215000.0,-0.06,0.12,0.18
215100.0,0.0,0.24,0.18
215200.0,0.0,0.37,0.12
215300.0,0.12,0.37,0.12
215400.0,0.0,0.24,0.12
215500.0,-0.31,0.31,0.12
215600.0,0.06,0.37,0.18
215700.0,0.49,0.18,-0.18
215800.0,0.37,0.0,0.0
215900.0,0.06,0.18,0.06
216000.0,-0.37,0.31,0.06
216100.0,0.12,0.31,-0.06
216200.0,0.06,0.31,0.12
216300.0,-6.65,-23.56,2.38
216400.0,13.61,62.07,-11.78
216500.0,50.66,12.82,22.77
216600.0,41.02,-54.08,63.11
216700.0,-77.88,-149.66,-96.31
216800.0,-52.31,48.16,-24.9
216900.0,23.38,73.61,11.78
217000.0,-206.36,26.0,-51.51
217100.0,-151.86,-22.03,-127.75
217200.0,-125.49,-76.78,-28.75
217300.0,-118.1,15.32,41.14
217400.0,-84.41,38.51,45.59
217500.0,25.45,23.01,23.99
217600.0,26.06,20.75,29.48
217700.0,40.16,-7.32,47.3
217800.0,20.32,21.42,37.17
217900.0,-6.84,-13.24,-10.31
218000.0,-23.13,1.46,-83.5
218100.0,-4.88,82.03,-53.04
218200.0,-19.29,21.73,11.84
218300.0,-51.7,54.32,44.98
218400.0,6.84,45.1,-1.1
218500.0,31.25,54.99,-21.18
218600.0,-57.31,42.11,-33.02
218700.0,-55.91,49.56,-24.41
218800.0,-6.53,31.25,-18.8
218900.0,-12.02,-13.0,-32.29
219000.0,-18.92,-6.29,-91.67
219100.0,28.75,-14.16,-49.93
219200.0,48.1,-65.55,-14.47
219300.0,116.82,-158.57,-48.89
219400.0,-5.07,30.46,-1.59
219500.0,-56.03,102.78,-12.63
219600.0,-49.13,2.32,20.81
219700.0,180.66,19.59,15.93
219800.0,-39.86,73.0,25.82
219900.0,-66.04,65.86,0.24
220000.0,22.58,4.21,4.52
220100.0,-36.87,34.61,8.73
220200.0,-34.97,28.44,-3.54
220300.0,-17.4,-1.77,-7.45
220400.0,0.55,-15.87,-6.77
220500.0,-23.19,-8.61,5.68
220600.0,-1.65,-2.99,-4.27
220700.0,9.58,-8.67,-2.93
220800.0,1.34,-7.57,-1.28
220900.0,5.55,-1.89,-6.23
221000.0,-0.61,3.78,-5.74
221100.0,5.49,0.49,-4.58
221200.0,10.99,-2.08,-7.02
221300.0,18.74,8.36,-4.33
221400.0,-0.98,3.78,1.04
221500.0,-1.1,2.81,1.34
221600.0,-2.62,14.1,11.23
221700.0,17.76,6.29,-1.53
221800.0,-22.4,0.49,12.63
221900.0,-10.25,-1.16,6.84
222000.0,-9.52,9.95,2.32
222100.0,-11.17,4.94,-1.65
222200.0,-12.39,1.95,5.07
222300.0,-2.26,-1.1,4.82
222400.0,1.16,0.49,0.0
222500.0,3.05,-0.79,-2.08
222600.0,4.52,-1.46,-5.13
222700.0,3.05,3.54,-9.22
222800.0,-2.26,0.67,-5.31
222900.0,-2.75,0.85,-1.65
223000.0,3.85,1.16,-3.11
223100.0,4.21,4.27,0.55
223200.0,3.23,3.66,0.61
223300.0,-0.37,2.2,-0.06
223400.0,-4.39,0.79,0.37
223500.0,1.28,0.0,-1.28
223600.0,-2.75,-0.73,0.06
223700.0,4.82,0.06,-3.36
223800.0,5.37,0.12,-4.82
223900.0,8.18,-1.1,2.56
224000.0,6.65,-3.48,-1.53
224100.0,-10.13,2.32,-1.4
224200.0,-1.22,-0.31,-0.55
224300.0,8.12,-0.61,-0.79
224400.0,7.57,0.55,-1.22
224500.0,0.67,-1.04,-1.04
224600.0,-0.18,-0.37,1.16
224700.0,-1.46,-1.71,3.54
224800.0,0.61,-1.34,-1.04
224900.0,-2.08,0.55,0.0
225000.0,-0.18,-0.98,0.85
225100.0,3.3,0.31,1.65
225200.0,-3.3,0.0,-0.37
225300.0,-4.09,-1.89,0.61
225400.0,3.6,-0.92,0.61
225500.0,3.78,1.77,-2.69
225600.0,0.12,1.28,-0.24
225700.0,1.28,0.49,-3.11
225800.0,2.56,0.31,1.77
225900.0,-1.71,-1.89,-0.49
226000.0,0.55,0.61,0.37
226100.0,5.37,0.0,0.31
226200.0,0.67,-2.93,-2.93
226300.0,-1.59,-0.61,1.22
226400.0,3.6,0.37,-0.18
226500.0,-2.62,0.31,5.19
226600.0,0.0,0.43,1.53
226700.0,0.55,-1.28,-0.85
226800.0,-1.89,0.55,-2.99
226900.0,-1.59,-1.46,-2.26
227000.0,-1.04,0.85,-0.92
227100.0,5.19,0.79,-1.46
227200.0,-1.16,-1.22,-0.61
227300.0,-2.69,-1.16,-1.46
227400.0,0.18,0.79,2.32
227500.0,-3.97,-0.49,2.81
227600.0,-1.89,1.1,3.78
227700.0,2.93,-1.1,0.92
227800.0,-0.73,-0.79,1.4
227900.0,-0.18,0.24,-1.46
228000.0,0.49,0.06,-1.22
228100.0,-0.31,0.24,-0.79
228200.0,2.08,1.4,-1.4
228300.0,2.87,0.31,-1.46
228400.0,3.36,0.92,-1.28
228500.0,0.49,0.92,0.49
228600.0,2.14,1.4,1.53
228700.0,5.55,-2.14,2.01
228800.0,9.34,-0.12,-0.85
228900.0,34.24,-2.93,4.82
229000.0,70.25,-3.72,1.04
229100.0,-10.44,1.83,2.87
229200.0,-15.63,-6.71,1.95
229300.0,-6.23,-3.36,-0.18
229400.0,-9.16,-3.42,-3.48
229500.0,-0.49,4.09,-2.44
229600.0,-6.16,1.95,4.46
229700.0,-9.4,0.49,1.4
229800.0,-21.42,-2.99,1.16
229900.0,13.0,2.81,-4.88
230000.0,3.36,0.49,3.97
230100.0,-13.73,1.89,8.06
230200.0,9.89,13.79,-4.21
230300.0,-1.16,-0.92,0.37
230400.0,-5.86,-1.28,5.19
230500.0,21.85,0.55,0.43
230600.0,17.64,2.32,-4.94
230700.0,-10.07,-4.82,8.24
230800.0,9.22,1.71,-2.87
230900.0,43.09,10.5,-16.91
231000.0,30.21,2.44,-3.66
231100.0,18.8,3.23,2.81
231200.0,31.31,0.12,1.1
231300.0,41.02,-3.85,15.69
231400.0,91.37,-2.99,-5.68
231500.0,120.36,-12.39,-8.3
231600.0,102.54,-11.78,-1.95
231700.0,46.94,-21.12,15.01
231800.0,83.62,-11.29,2.32
231900.0,50.84,-6.84,4.58
232000.0,84.05,-24.6,-26.49
232100.0,103.88,-43.21,-58.84
232200.0,125.37,-41.44,-46.45
232300.0,121.15,-46.63,-47.0
232400.0,84.17,-24.11,-9.22
232500.0,16.91,3.97,14.4
232600.0,54.87,-7.57,4.39
232700.0,15.87,-3.17,13.92
232800.0,36.74,-6.16,4.52
232900.0,46.81,-28.02,9.22
233000.0,47.18,-3.36,-1.53
233100.0,42.18,-0.61,16.91
233200.0,75.99,-10.8,15.08
233300.0,39.31,-7.75,3.36
233400.0,0.06,0.85,-6.65
233500.0,-19.53,7.57,-3.11
233600.0,-5.19,12.76,-6.16
233700.0,-16.36,14.95,-4.82
233800.0,-27.95,9.03,-2.14
233900.0,7.51,-2.81,-2.5
234000.0,-4.46,-3.3,-6.29
234100.0,-18.01,7.14,-4.03
234200.0,-45.96,21.73,-2.56
234300.0,0.79,12.63,-1.1
234400.0,-6.84,7.93,2.75
234500.0,7.39,-0.24,10.5
234600.0,3.48,2.32,2.38
234700.0,-3.85,3.48,0.06
234800.0,-1.46,1.89,3.54
234900.0,12.08,-4.15,2.99
235000.0,8.73,0.24,5.19
235100.0,-7.02,1.83,2.26
235200.0,-76.29,17.64,3.11
235300.0,-174.5,56.58,0.85
235400.0,-291.2,101.07,32.96
235500.0,-168.46,66.83,69.64
235600.0,-194.21,66.28,124.94
235700.0,-226.93,39.79,56.4
235800.0,-296.87,43.33,55.91
235900.0,-124.33,45.23,-15.93
236000.0,-21.61,42.79,-47.0
236100.0,-108.34,-76.42,43.88
236200.0,45.17,-49.32,-2.5
236300.0,38.64,-5.74,-21.79
236400.0,-23.32,-9.4,-21.24
236500.0,20.2,-22.46,-26.0
236600.0,-5.25,3.42,-4.88
236700.0,6.04,59.51,21.85
236800.0,-0.43,-7.45,13.12
236900.0,59.45,4.64,-18.62
237000.0,-0.67,7.81,-7.26
237100.0,-14.77,5.74,-4.58
237200.0,-6.84,20.39,10.01
237300.0,-33.63,-3.48,21.3
237400.0,39.61,1.53,16.05
237500.0,-66.28,-10.8,1.28
237600.0,-20.69,-46.88,9.77
237700.0,10.19,1.83,15.99
237800.0,16.42,6.77,-0.37
237900.0,17.15,7.02,7.81
238000.0,4.88,-3.36,5.74
238100.0,40.28,-2.62,-9.34
238200.0,121.64,-35.22,-65.92
238300.0,61.83,-61.95,42.54
238400.0,105.35,17.64,-15.32
238500.0,-101.93,-12.57,38.94
238600.0,-114.5,80.38,91.98
238700.0,1.59,44.74,152.53
238800.0,60.49,9.09,0.24
238900.0,198.97,52.55,-12.39
239000.0,87.95,48.16,-2.08
239100.0,-15.26,-31.31,-1.4
239200.0,32.1,-73.06,8.85
239300.0,16.42,10.38,12.27
239400.0,34.06,19.41,1.28
239500.0,-15.93,-1.4,-27.77
239600.0,70.43,-7.32,-8.48
239700.0,56.82,-1.95,4.27
239800.0,130.49,3.36,0.67
239900.0,111.02,-1.4,17.58
240000.0,96.98,-15.32,33.33
240100.0,146.91,0.73,43.88
240200.0,126.28,-43.58,42.42
240300.0,46.94,3.91,35.58
240400.0,7.57,-9.22,63.6
240500.0,62.01,-22.28,58.53
240600.0,60.06,-27.4,47.18
240700.0,44.86,-25.63,45.96
240800.0,86.85,-31.25,65.0
240900.0,98.75,-46.02,73.12
241000.0,97.23,-58.17,54.44
241100.0,61.34,-42.48,35.34
241200.0,-28.87,-5.37,1.1
241300.0,-13.67,-2.14,2.26
241400.0,-2.81,-1.77,2.38
241500.0,4.52,-0.37,6.1
241600.0,18.92,-6.47,4.15
241700.0,-8.54,0.79,-4.03
241800.0,-6.53,4.39,-1.34
241900.0,3.42,0.43,-0.06
242000.0,-3.36,5.19,-2.32
242100.0,-4.09,3.42,-1.95
242200.0,-9.89,3.05,-4.64
242300.0,-12.27,3.36,-2.44
242400.0,13.98,-1.34,5.74
242500.0,-1.28,2.08,-2.93
242600.0,-5.92,-1.22,-3.42
242700.0,9.7,2.44,0.0
242800.0,-0.55,1.89,-5.43
242900.0,-2.08,-0.06,-3.72
243000.0,-4.52,2.93,-5.92
243100.0,3.17,2.2,-3.05
243200.0,4.09,2.93,-0.06
243300.0,3.48,1.46,-5.07
243400.0,12.7,10.8,-0.12
243500.0,4.94,3.6,-2.44
243600.0,2.62,2.62,-5.55
243700.0,-2.87,5.86,-4.39
243800.0,2.44,0.67,-1.95
243900.0,0.37,-0.18,-1.28
244000.0,-2.44,2.87,1.04
244100.0,0.18,-1.34,-2.32
244200.0,-5.86,-0.85,-2.2
244300.0,-2.14,0.55,1.71
244400.0,-3.6,1.59,1.4
244500.0,-9.03,-2.32,2.44
244600.0,7.14,-2.01,2.44
244700.0,0.43,0.18,-0.61
244800.0,-4.46,-2.14,1.77
244900.0,3.36,1.53,-1.59
245000.0,5.07,0.55,-2.99
245100.0,12.94,4.94,-5.31
245200.0,-2.32,7.63,-1.1
245300.0,-0.55,-0.06,0.37
245400.0,-1.53,0.61,-0.49
245500.0,7.02,-3.54,1.04
245600.0,-2.81,2.99,-1.53
245700.0,-1.1,1.16,1.95
245800.0,1.22,0.31,2.08
245900.0,-0.85,-0.49,-2.08
246000.0,0.31,-0.85,0.85
246100.0,-2.01,-0.73,0.06
246200.0,-1.65,-1.1,0.06
246300.0,0.85,-1.34,-0.61
246400.0,2.14,2.2,0.67
246500.0,4.88,1.77,-1.59
246600.0,1.1,1.4,-2.32
246700.0,1.22,0.85,0.98
246800.0,1.83,0.79,-1.89
246900.0,-1.34,-1.95,-0.55
247000.0,0.92,-1.53,0.61
247100.0,1.95,-2.08,0.43
247200.0,-2.69,-0.85,2.14
247300.0,-1.83,-1.16,2.14
247400.0,3.85,-1.95,0.24
247500.0,-4.64,-0.31,-0.98
247600.0,0.61,-0.31,0.24
247700.0,0.12,-2.32,-1.22
247800.0,2.44,-1.34,1.89
247900.0,0.61,-0.06,0.49
248000.0,0.24,-1.46,-0.24
248100.0,-57.31,28.93,-30.09
248200.0,-107.24,50.48,-69.76
248300.0,-117.37,53.22,-90.33
248400.0,-131.04,52.8,-117.31
248500.0,-3.72,42.36,-67.26
248600.0,-10.25,5.98,-71.29
248700.0,15.2,-8.18,-87.04
248800.0,-6.29,-3.11,-21.61
248900.0,-31.49,3.42,-34.48
249000.0,-0.73,-4.15,0.18
249100.0,-7.08,-4.46,-2.93
249200.0,-1.34,-4.39,-1.95
249300.0,-3.05,-9.46,0.98
249400.0,6.41,-2.69,5.92
249500.0,1.53,-2.14,1.83
249600.0,0.85,-0.43,8.85
249700.0,7.32,2.5,5.8
249800.0,14.47,3.42,14.71
249900.0,-1.65,6.41,15.93
250000.0,-6.9,-8.79,19.29
250100.0,6.53,-5.43,27.65
250200.0,15.32,-10.86,36.62
250300.0,4.82,-6.1,29.54
250400.0,37.96,-21.85,54.02
250500.0,1.83,-16.78,31.37
250600.0,17.82,-12.94,24.78
250700.0,8.85,-4.03,6.23
250800.0,4.88,-1.4,12.76
250900.0,-11.17,2.81,-14.47
251000.0,7.57,-3.66,6.23
251100.0,3.05,-7.2,2.81
251200.0,6.1,-2.26,0.98
251300.0,5.31,-1.34,1.83
251400.0,0.73,-1.1,2.69
251500.0,2.01,-0.73,0.43
251600.0,12.88,13.31,8.18
251700.0,2.62,89.36,45.78
251800.0,-29.72,83.62,-3.78
251900.0,74.77,75.99,-10.38
252000.0,186.28,172.18,-27.4
252100.0,12.51,114.07,-15.14
252200.0,-17.4,36.19,32.35
252300.0,0.79,39.79,79.16
252400.0,66.35,87.71,42.91
252500.0,26.25,43.21,94.6
252600.0,10.62,62.07,124.21
252700.0,-18.55,23.56,55.48
252800.0,-9.4,36.74,66.1
252900.0,-33.45,39.43,50.11
253000.0,-34.61,68.91,48.89
253100.0,-177.43,-131.35,65.67
253200.0,-179.81,-84.47,52.67
253300.0,42.42,23.01,99.0
253400.0,48.28,28.81,0.85
253500.0,65.43,39.43,-54.2
253600.0,68.24,3.72,-70.68
253700.0,103.39,-0.73,-26.92
253800.0,-26.92,19.47,34.24
253900.0,-5.13,8.61,13.92
254000.0,3.72,33.2,31.92
254100.0,10.38,-9.89,-13.73
254200.0,14.65,-5.37,-1.77
254300.0,-5.0,-30.76,-14.16
254400.0,4.21,0.12,4.46
254500.0,6.84,10.25,7.63
254600.0,7.39,8.3,-5.0
254700.0,15.2,-24.72,-38.82
254800.0,141.66,-76.72,-147.34
254900.0,12.15,-28.14,-34.18
255000.0,52.55,-24.78,-29.24
255100.0,46.81,-0.61,6.53
255200.0,47.18,-13.24,-12.02
255300.0,13.24,-37.17,-13.98
255400.0,17.4,-0.12,8.48
255500.0,8.36,1.83,3.11
255600.0,5.62,-1.83,-1.1
255700.0,-11.11,14.04,9.58
255800.0,-8.3,12.45,4.94
255900.0,17.33,-10.62,-5.43
256000.0,6.29,-2.75,0.31
256100.0,-4.03,2.93,-13.31
256200.0,-0.98,0.31,-8.54
256300.0,9.46,-5.31,-8.67
256400.0,11.11,15.44,-21.06
256500.0,-22.28,-11.23,-24.72
256600.0,-11.11,-0.79,-8.73
256700.0,14.47,6.71,11.41
256800.0,19.41,-10.25,80.75
256900.0,-6.41,-2.2,122.86
257000.0,-20.39,30.88,93.2
257100.0,11.29,-2.44,64.58
257200.0,26.18,-41.38,76.97
257300.0,-1.46,-67.44,85.21
257400.0,-37.84,-20.57,87.34
257500.0,-17.58,-29.17,92.29
257600.0,-12.45,-22.95,60.49
257700.0,10.07,-39.0,35.52
257800.0,-27.47,-34.24,14.95
257900.0,8.61,-10.19,0.31
258000.0,-5.98,-2.69,5.86
258100.0,-6.04,-7.81,8.42
258200.0,-22.22,-4.82,31.49
258300.0,-9.09,3.78,12.02
258400.0,-21.36,-8.67,-9.95
258500.0,-25.7,4.09,-6.96
258600.0,-32.04,11.96,-3.78
258700.0,-8.24,11.96,6.9
258800.0,-38.76,-14.22,13.79
258900.0,-129.33,-33.33,74.4
259000.0,-128.66,-21.3,42.85
259100.0,-78.61,-5.74,6.04
259200.0,-121.09,-41.75,21.91
259300.0,-248.11,33.2,-13.61
259400.0,-121.58,17.94,-1.1
259500.0,-9.83,-1.4,-38.57
259600.0,-48.52,-2.75,-35.64
259700.0,-235.6,-1.46,19.41
259800.0,-42.05,-5.13,-11.9
259900.0,-93.57,-42.79,-43.82
260000.0,20.87,9.83,-35.16
260100.0,12.21,8.79,-39.86
260200.0,-93.69,53.83,-56.09
260300.0,-35.22,1.71,-32.35
260400.0,-6.77,-6.96,-1.65
260500.0,-0.31,-18.74,62.62
260600.0,-32.96,-11.35,37.11
260700.0,34.42,-45.53,41.87
260800.0,12.51,-23.38,44.01
260900.0,13.98,10.07,26.55
261000.0,-90.45,5.62,43.76
261100.0,1.28,-0.24,16.97
261200.0,-30.09,-26.06,47.12
261300.0,2.5,38.57,-14.22
261400.0,130.37,22.46,1.89
261500.0,-31.25,-0.55,-35.22
261600.0,16.42,-13.0,-2.75
261700.0,18.37,5.92,-6.96
261800.0,-10.25,7.26,6.35
261900.0,15.81,23.25,14.59
262000.0,7.2,-0.73,11.78
262100.0,-15.81,9.22,0.49
262200.0,-9.89,18.8,-11.05
262300.0,-37.6,5.8,-3.23
262400.0,52.92,-4.7,8.91
262500.0,1.65,1.65,-8.0
262600.0,-0.43,4.46,-4.76
262700.0,1.28,-0.98,-12.82
262800.0,-32.41,14.95,10.31
262900.0,5.13,1.71,5.49
263000.0,13.79,7.75,-4.82
263100.0,11.47,-8.73,-15.63
263200.0,1.71,-1.77,5.31
263300.0,-8.61,-1.53,4.33
263400.0,-0.98,-3.23,6.84
263500.0,2.87,-7.26,6.9
263600.0,-4.09,14.34,7.45
263700.0,-0.55,21.61,-6.84
263800.0,-12.45,9.64,-0.79
263900.0,-1.95,5.07,10.86
264000.0,-13.49,10.38,9.4
264100.0,11.41,-2.26,6.35
264200.0,9.4,-2.08,2.44
264300.0,-2.2,7.87,-7.81
264400.0,-15.87,10.31,6.65
264500.0,6.29,16.24,8.24
264600.0,12.21,27.59,0.0
264700.0,4.52,4.64,-2.62
264800.0,-24.66,8.61,19.84
264900.0,-18.92,0.55,5.07
265000.0,7.75,6.53,1.46
265100.0,6.29,2.56,-0.18
265200.0,14.28,8.91,-5.43
265300.0,-0.92,-2.38,2.01
265400.0,-7.14,2.99,5.13
265500.0,2.32,-0.06,2.38
265600.0,7.51,11.78,7.2
265700.0,3.36,11.47,-0.37
265800.0,-13.67,11.35,-0.55
265900.0,-0.49,2.32,4.64
266000.0,0.0,-2.81,0.31
266100.0,-2.38,6.65,-2.01
266200.0,-4.33,4.15,0.24
266300.0,-24.23,14.16,7.75
266400.0,-56.09,16.6,37.41
266500.0,-118.77,-31.25,77.09
266600.0,73.0,118.1,80.32
266700.0,-94.85,36.44,-1.1
266800.0,-3.72,19.78,0.24
266900.0,28.87,-6.59,-31.56
267000.0,54.69,-28.2,-26.12
267100.0,76.6,-44.13,-61.58
267200.0,91.31,-80.87,-72.69
267300.0,162.11,-55.3,-42.66
267400.0,49.62,-2.01,-27.04
267500.0,164.25,-9.22,-45.41
267600.0,114.93,27.89,-2.75
267700.0,-50.96,-61.58,10.5
267800.0,6.65,1.46,-8.42
267900.0,-18.62,28.5,-26.98
268000.0,193.05,60.42,-11.23
268100.0,92.59,44.01,-46.14
268200.0,219.91,87.1,38.64
268300.0,20.75,2.2,1.4
268400.0,17.94,1.59,0.18
268500.0,2.26,2.38,-0.43
268600.0,1.59,0.61,0.12
268700.0,1.04,0.49,0.0
268800.0,0.67,0.31,0.0
268900.0,1.71,0.18,-0.55
269000.0,0.92,0.12,0.37
269100.0,0.98,0.12,0.18
269200.0,0.0,0.18,-0.24
269300.0,-0.79,0.06,0.06
269400.0,1.16,0.43,-0.06
269500.0,1.1,0.31,0.06
269600.0,0.06,0.12,0.06
269700.0,-0.18,0.12,0.18
269800.0,-0.18,0.12,0.06
269900.0,0.73,0.18,0.06
270000.0,0.0,0.12,0.06
270100.0,0.06,0.12,0.06
270200.0,0.06,0.18,0.06
270300.0,0.06,0.18,0.06
270400.0,-0.31,0.12,0.0
270500.0,-0.12,0.12,0.12
270600.0,-0.06,0.12,0.06
270700.0,0.06,0.18,0.06
270800.0,0.12,0.12,0.06
270900.0,0.06,0.12,0.12
271000.0,-0.12,0.12,0.06
271100.0,0.12,0.18,0.06
271200.0,0.06,0.18,0.12
271300.0,-0.06,0.12,0.12
271400.0,0.0,0.12,0.06
271500.0,-0.12,0.18,0.12
271600.0,0.06,0.18,0.06
271700.0,0.18,0.12,0.06
271800.0,0.12,0.18,0.12
271900.0,0.06,0.18,0.06
272000.0,-0.12,0.12,0.12
272100.0,0.0,0.12,0.12
272200.0,-0.31,0.12,0.12
272300.0,0.12,0.18,0.06
272400.0,-0.06,0.06,0.12
272500.0,-0.12,0.18,0.12
272600.0,0.0,0.18,0.06
272700.0,0.12,0.18,0.12
272800.0,-0.06,0.12,0.12
272900.0,0.24,0.18,0.12
273000.0,0.12,0.18,0.12
273100.0,-0.12,0.18,0.12
273200.0,0.06,0.18,0.12
273300.0,-0.06,0.12,0.12
273400.0,-0.06,0.12,0.06
273500.0,0.12,0.12,0.12
273600.0,-0.18,0.12,0.06
273700.0,0.12,0.18,0.06
273800.0,0.06,0.12,0.06
273900.0,0.06,0.12,0.06
274000.0,0.06,0.12,0.06
274100.0,0.0,0.18,0.06
274200.0,0.24,0.18,0.06
274300.0,0.12,0.18,0.12
274400.0,0.06,0.12,0.12
274500.0,0.06,0.18,0.06
274600.0,0.06,0.18,0.06
274700.0,0.06,0.18,0.12
274800.0,0.12,0.12,0.06
274900.0,0.12,0.18,0.06
275000.0,0.12,0.12,0.06
275100.0,-0.06,0.18,0.12
275200.0,-0.18,0.18,0.12
275300.0,-1.16,0.24,0.37
275400.0,-0.98,0.31,0.61
275500.0,-0.37,0.18,0.0
275600.0,-0.06,0.12,0.12
275700.0,0.0,0.12,0.12
275800.0,-0.24,0.18,0.12
275900.0,-0.06,0.18,0.06
276000.0,0.12,0.12,0.18
276100.0,0.06,0.18,0.06
276200.0,0.06,0.12,0.12
276300.0,0.06,0.18,0.06
276400.0,0.0,0.18,0.06
276500.0,0.0,0.18,0.12
276600.0,6.47,0.98,0.61
276700.0,8.42,-10.99,1.77
276800.0,-41.87,-31.86,9.4
276900.0,-12.33,-5.98,1.34
277000.0,-23.74,-67.93,94.48
277100.0,-5.86,-34.61,-25.51
277200.0,-65.8,-5.98,-35.1
277300.0,-100.71,18.49,-47.49
277400.0,-86.98,25.45,-57.31
277500.0,-105.04,-4.76,-25.7
277600.0,-51.94,-7.08,7.69
277700.0,-52.43,-11.72,2.87
277800.0,-67.2,-14.95,19.78
277900.0,13.18,-10.99,9.95
278000.0,-5.0,-21.06,28.14
278100.0,-3.97,-6.04,10.68
278200.0,1.34,-8.85,-14.47
278300.0,-9.95,-6.77,-7.69
278400.0,-41.38,8.79,-16.48
278500.0,11.41,10.07,6.65
278600.0,-2.44,9.46,19.04
278700.0,-2.2,7.57,9.77
278800.0,-27.4,-2.2,5.0
278900.0,-35.22,14.47,7.69
279000.0,-14.1,14.89,7.14
279100.0,3.54,11.05,9.22
279200.0,6.29,5.92,-7.26
279300.0,14.47,18.68,-1.4
279400.0,17.33,7.32,8.24
279500.0,3.48,14.1,-2.44
279600.0,10.99,18.98,3.36
279700.0,1.59,16.17,-1.28
279800.0,-10.5,27.47,-3.3
279900.0,28.26,19.35,5.25
280000.0,-5.62,10.56,-2.5
280100.0,22.46,-5.86,9.46
280200.0,14.4,10.13,5.68
280300.0,4.27,4.15,-0.73
280400.0,8.3,11.47,3.36
280500.0,2.2,13.98,0.24
280600.0,-13.98,11.78,3.36
280700.0,-0.31,6.41,-18.43
280800.0,12.7,4.33,-0.98
280900.0,-0.12,24.05,-12.21
281000.0,-13.31,42.97,21.79
281100.0,-10.5,35.95,-0.24
281200.0,-27.4,44.13,18.07
281300.0,-8.36,16.72,-12.08
281400.0,1.34,31.43,-15.32
281500.0,6.53,31.31,-9.64
281600.0,4.58,38.27,-8.67
281700.0,5.25,26.86,0.31
281800.0,7.57,32.41,-18.19
281900.0,13.06,29.42,-15.38
282000.0,31.13,47.42,-6.04
282100.0,4.52,39.06,-23.44
282200.0,1.22,31.86,-32.23
282300.0,-5.86,22.46,-31.98
282400.0,1.1,19.78,-23.99
282500.0,-8.48,22.64,-18.43
282600.0,2.26,29.54,-15.2
282700.0,-0.67,17.94,-27.47
282800.0,-2.2,21.79,-35.77
282900.0,-7.02,35.83,-24.9
283000.0,-0.85,24.23,-21.67
283100.0,-7.2,10.93,-33.57
283200.0,7.14,19.47,-28.93
283300.0,2.56,27.4,-32.53
283400.0,-10.44,15.14,-40.04
283500.0,-5.25,4.39,-45.47
283600.0,-7.93,19.04,-32.84
283700.0,-24.96,29.42,-40.65
283800.0,-16.6,25.57,-26.25
283900.0,5.07,9.7,-15.81
284000.0,17.46,-23.32,-11.11
284100.0,19.84,3.42,-18.13
284200.0,-2.99,2.26,-32.1
284300.0,13.0,-12.39,21.12
284400.0,-0.06,-6.9,-39.12
284500.0,36.19,15.32,-23.25
284600.0,-48.22,13.98,-29.79
284700.0,-35.83,8.97,-13.49
284800.0,-23.38,17.76,4.7
284900.0,-40.41,-0.43,-18.74
285000.0,-87.95,29.48,-32.29
285100.0,-29.42,21.42,-31.01
285200.0,-17.4,10.99,-20.32
285300.0,-25.57,-3.85,-8.0
285400.0,-25.63,-0.06,-5.92
285500.0,-15.32,-1.77,-13.06
285600.0,-24.72,8.54,-24.84
285700.0,0.24,-2.01,-23.13
285800.0,-6.35,-17.7,-35.03
285900.0,9.77,-20.94,-48.95
286000.0,7.08,-30.58,-37.11
286100.0,16.72,-44.31,-21.73
286200.0,7.39,-24.17,-28.81
286300.0,0.98,-15.14,-24.6
286400.0,1.04,-21.06,-17.7
286500.0,23.38,-17.33,-17.03
286600.0,17.03,-29.79,-27.28
286700.0,29.24,-19.29,-26.31
286800.0,11.17,-21.73,-14.22
286900.0,12.02,-19.29,-13.37
287000.0,16.17,-18.37,-0.06
287100.0,17.33,-16.42,-7.08
287200.0,20.45,-23.32,-2.75
287300.0,-5.43,-21.06,-2.69
287400.0,1.4,-12.63,-2.2
287500.0,24.96,-22.83,-2.99
287600.0,52.12,-27.77,-0.18
287700.0,17.4,-24.9,-5.98
287800.0,59.94,-33.08,-3.05
287900.0,89.66,-39.06,2.5
288000.0,44.49,-27.65,9.28
288100.0,52.8,-36.87,5.37
288200.0,3.6,-15.14,15.08
288300.0,26.18,-20.51,19.47
288400.0,22.83,-14.22,15.81
288500.0,37.23,-52.31,16.17
288600.0,61.65,-18.07,6.71
288700.0,69.89,-25.57,-4.52
288800.0,40.89,-18.19,-11.35
288900.0,-0.37,-7.93,14.89
289000.0,25.02,-11.6,26.86
289100.0,29.17,-15.99,4.7
289200.0,13.12,-20.2,8.36
289300.0,39.0,-22.16,13.85
289400.0,165.77,-17.27,9.52
289500.0,57.62,-16.54,20.26
289600.0,43.4,-18.07,9.52
289700.0,47.79,-8.36,8.42
289800.0,47.73,-11.78,10.19
289900.0,46.33,-13.85,7.14
290000.0,-12.94,-10.25,12.76
290100.0,-11.41,-13.18,7.69
290200.0,-12.88,-6.65,7.39
290300.0,0.61,-6.23,7.75
290400.0,2.75,-15.08,0.06
290500.0,-12.63,-5.31,1.77
290600.0,-5.8,11.05,3.05
290700.0,-35.1,24.11,-3.6
290800.0,-16.48,56.15,7.87
290900.0,4.15,71.11,16.17
291000.0,-8.85,78.25,1.77
291100.0,4.76,61.34,-5.49
291200.0,-9.95,47.42,-14.59
291300.0,7.39,72.81,-7.63
291400.0,18.49,52.37,-23.62
291500.0,-8.85,43.4,-26.43
291600.0,18.86,18.01,10.44
291700.0,26.86,47.73,17.4
291800.0,5.25,26.31,-20.39
291900.0,3.17,36.19,-21.0
292000.0,-6.53,30.33,-13.92
292100.0,-3.72,24.54,-2.01
292200.0,-6.71,40.71,-35.16
292300.0,-2.62,54.02,-20.45
292400.0,-30.03,66.35,-4.09
292500.0,-11.23,37.35,-5.31
292600.0,0.37,36.13,-26.73
292700.0,-20.14,40.16,-20.81
292800.0,19.35,12.88,-8.3
292900.0,-33.69,14.95,-24.78
293000.0,-15.56,10.31,43.4
293100.0,-0.12,12.39,-36.38
293200.0,-16.11,-3.36,-17.7
293300.0,-10.19,2.75,-2.62
293400.0,62.74,-17.82,-37.35
293500.0,12.15,-29.48,12.33
293600.0,-7.45,46.02,-28.44
293700.0,18.74,-31.13,-9.28
293800.0,-7.08,-9.4,-42.11
293900.0,3.85,-45.84,-0.92
294000.0,-12.33,-45.29,-5.55
294100.0,1.34,-33.14,-27.53
294200.0,-3.72,-31.37,-23.62
294300.0,34.61,-44.31,-9.46
294400.0,34.24,-49.5,-2.75
294500.0,23.99,-52.67,18.68
294600.0,-8.12,-21.61,5.43
294700.0,9.58,-56.27,22.77
294800.0,62.13,-44.8,-6.04
294900.0,78.19,-38.64,2.75
295000.0,64.33,-33.14,1.22
295100.0,44.07,-23.44,13.61
295200.0,82.64,-23.8,24.35
295300.0,102.17,3.17,60.97
295400.0,43.27,-5.86,30.64
295500.0,31.56,-13.85,27.34
295600.0,-3.05,23.8,37.54
295700.0,2.32,36.87,33.26
295800.0,15.2,-1.04,41.38
295900.0,4.03,10.5,59.39
296000.0,-7.08,10.99,62.56
296100.0,-79.16,-4.94,53.28
296200.0,-168.21,-114.69,61.71
296300.0,45.29,3.48,2.69
296400.0,13.92,35.58,12.57
296500.0,54.87,45.96,-23.8
296600.0,52.43,62.01,10.25
296700.0,35.16,37.6,-76.78
296800.0,30.4,41.02,21.61
296900.0,-3.3,12.02,-10.01
297000.0,-40.71,52.98,-20.69
297100.0,-13.85,47.42,-3.42
297200.0,8.12,44.07,-11.29
297300.0,-3.05,51.76,2.08
297400.0,-6.77,40.71,-14.16
297500.0,-33.39,38.7,-14.77
297600.0,-13.61,12.15,-16.85
297700.0,-2.81,-1.95,-9.46
297800.0,51.82,-5.86,3.48
297900.0,33.75,-3.85,7.02
298000.0,-4.21,14.53,-33.33
298100.0,-8.54,11.29,-0.67
298200.0,20.57,-14.71,-63.48
298300.0,-11.66,25.15,-16.54
298400.0,-98.21,28.99,10.93
298500.0,-31.68,54.38,-75.2
298600.0,1.71,17.7,-55.11
298700.0,10.44,27.28,-50.96
298800.0,21.91,1.83,-43.88
298900.0,6.96,27.16,-74.83
299000.0,2.44,-0.98,-2.44
299100.0,-30.52,16.48,-61.89
299200.0,1.53,-6.96,-26.55
299300.0,-8.0,8.48,-43.76
299400.0,0.79,-14.95,-24.54
299500.0,-7.87,-10.31,-26.79
299600.0,-7.26,-5.49,-28.38
299700.0,6.84,-8.12,-10.19
299800.0,9.58,-14.53,-10.56
299900.0,5.68,-6.77,-12.45
300000.0,10.31,-11.47,0.31
300100.0,15.38,-18.43,19.96
300200.0,39.92,-45.65,42.11
300300.0,46.39,-39.06,19.71
300400.0,43.33,-54.38,42.18
300500.0,-9.09,-10.19,-9.95
300600.0,22.22,-26.31,25.02
300700.0,20.02,-37.6,16.17
300800.0,12.82,-33.69,38.09
300900.0,16.85,-48.65,57.13
301000.0,52.25,-54.14,49.68
301100.0,51.15,-35.71,36.62
301200.0,80.02,-37.29,64.15
301300.0,57.37,-8.24,6.59
301400.0,37.17,9.09,-1.77
301500.0,40.83,0.24,6.71
301600.0,26.92,9.95,-21.42
301700.0,13.73,8.24,-14.71
301800.0,50.66,-14.1,21.48
301900.0,-0.31,7.75,29.6
302000.0,10.13,-4.76,8.79
302100.0,4.88,19.71,-1.4
302200.0,9.52,21.24,11.47
302300.0,25.02,8.67,1.34
302400.0,29.11,0.18,15.5
302500.0,41.69,-7.45,27.28
302600.0,16.6,-3.78,-11.23
302700.0,3.72,5.25,0.31
302800.0,-7.39,-5.43,6.84
302900.0,-6.41,-3.54,6.96
303000.0,-10.07,1.53,-4.15
303100.0,-6.29,-1.65,0.37
303200.0,-10.38,-1.59,-1.34
303300.0,-4.03,-2.01,3.23
303400.0,-2.56,3.48,3.17
303500.0,0.18,-2.62,0.73
303600.0,1.34,-1.65,0.55
303700.0,0.67,-2.26,2.93
303800.0,0.43,1.28,3.23
303900.0,-4.88,3.66,1.4
304000.0,-1.1,-1.1,2.38
304100.0,-5.68,2.08,2.01
304200.0,-6.65,-0.67,1.77
304300.0,-0.49,-2.75,2.81
304400.0,-2.81,3.05,-0.43
304500.0,4.21,0.49,1.46
304600.0,-2.01,2.56,-0.37
304700.0,3.42,1.77,0.67
304800.0,9.16,-4.03,-6.59
304900.0,4.09,-8.24,-22.64
305000.0,-5.0,-4.46,-23.99
305100.0,5.98,-7.81,-15.26
305200.0,-2.26,-0.79,-8.73
305300.0,-1.34,0.61,-7.69
305400.0,4.09,0.79,-2.01
305500.0,-13.85,1.71,-8.91
305600.0,-6.84,0.43,-2.75
305700.0,-8.18,5.49,-1.22
305800.0,13.85,-1.4,0.92
305900.0,-3.97,6.47,-0.06
306000.0,-8.0,4.52,0.37
306100.0,5.43,-8.12,2.81
306200.0,-13.92,-4.94,-1.1
306300.0,4.33,1.16,4.58
306400.0,-3.72,-3.17,-1.4
306500.0,-5.19,1.22,2.87
306600.0,-2.2,-0.92,0.24
306700.0,-1.59,0.61,1.34
306800.0,-1.59,-1.34,0.43
306900.0,0.92,2.01,0.61
307000.0,-4.27,0.61,-1.71
307100.0,-2.5,1.22,0.0
307200.0,-0.37,0.49,-2.01
307300.0,2.32,-1.16,0.0
307400.0,-6.23,1.95,-1.1
307500.0,-1.4,0.73,-2.14
307600.0,1.89,0.49,-2.5
307700.0,1.46,0.0,-0.18
307800.0,0.61,-0.98,1.16
307900.0,1.22,2.26,0.49
308000.0,6.23,-2.93,-3.05
308100.0,6.29,-4.46,-1.16
308200.0,4.64,0.24,-0.92
308300.0,1.28,-1.83,-2.62
308400.0,5.8,-4.03,2.08
308500.0,5.8,0.43,-1.46
308600.0,1.95,-1.46,-1.28
308700.0,-8.48,-1.4,1.65
308800.0,5.37,-1.71,0.98
308900.0,0.43,0.24,-1.34
309000.0,-2.2,1.4,-4.03
309100.0,-1.71,2.38,-2.2
309200.0,-1.95,0.79,-2.08
309300.0,-6.59,-2.26,-5.13
309400.0,-1.77,0.92,-0.98
309500.0,-2.69,4.33,0.85
309600.0,-2.87,4.46,-11.05
309700.0,-3.42,2.5,-6.1
309800.0,-8.12,-1.59,-1.4
309900.0,-2.87,-3.6,0.0
310000.0,4.82,1.95,3.78
310100.0,2.56,-0.92,11.66
310200.0,10.19,-3.48,24.35
310300.0,5.68,4.39,1.59
310400.0,8.3,-0.92,-3.3
310500.0,-5.07,1.34,-2.08
310600.0,22.34,3.11,26.49
310700.0,-2.01,-0.18,-12.27
310800.0,3.3,1.16,1.83
310900.0,3.91,-0.73,2.93
311000.0,0.06,-3.17,-2.26
311100.0,-2.93,-3.11,-0.06
311200.0,3.42,3.05,8.0
311300.0,2.14,1.89,-1.28
311400.0,0.31,-3.54,-2.26
311500.0,-1.1,0.61,2.08
311600.0,-1.1,0.55,1.89
311700.0,-0.49,-2.5,0.06
311800.0,0.79,-0.24,0.12
311900.0,-12.39,1.95,-2.93
312000.0,-36.5,-8.36,-19.17
312100.0,-83.37,-33.14,18.62
312200.0,-104.55,-4.7,2.75
312300.0,-62.56,1.4,-50.84
312400.0,-13.37,36.19,15.69
312500.0,24.6,24.66,21.55
312600.0,84.47,-21.36,27.34
312700.0,43.46,-37.35,-1.95
312800.0,46.02,-33.26,20.57
312900.0,37.41,-26.43,8.91
313000.0,-5.0,-4.15,-19.47
313100.0,-15.32,-6.16,-21.24
313200.0,-24.48,-5.13,-11.41
313300.0,-21.24,-5.49,-2.5
313400.0,-20.14,-12.63,3.23
313500.0,-16.6,9.77,-12.15
313600.0,20.75,3.11,4.76
313700.0,17.21,9.52,-3.97
313800.0,24.9,-0.12,1.16
313900.0,11.35,-4.21,1.89
314000.0,56.95,-1.53,4.94
314100.0,12.76,-3.48,-0.61
314200.0,3.36,-1.28,-2.5
314300.0,11.6,0.49,2.32
314400.0,-10.86,-1.71,0.18
314500.0,4.52,1.16,-1.16
314600.0,0.43,1.4,0.49
314700.0,-9.09,2.75,-1.65
314800.0,-3.05,3.05,-1.65
314900.0,-6.41,2.2,1.65
315000.0,-6.77,3.85,2.2
315100.0,-3.36,4.7,-1.59
315200.0,3.78,3.36,-0.67
315300.0,0.12,2.2,-2.32
315400.0,-1.4,1.71,-1.46
315500.0,-4.94,2.75,-0.98
315600.0,-8.18,2.5,-2.01
315700.0,2.01,1.34,-0.06
315800.0,-5.98,0.24,0.37
315900.0,-2.87,-0.18,0.06
316000.0,0.24,-0.98,0.12
316100.0,-1.16,0.61,0.98
316200.0,-1.95,1.04,0.61
316300.0,0.55,-1.28,1.1
316400.0,1.83,-0.43,0.06
316500.0,1.22,-1.46,0.18
316600.0,3.05,-1.4,-1.34
316700.0,0.61,-0.73,1.71
316800.0,3.05,-0.73,-3.05
316900.0,0.49,-0.37,0.12
317000.0,0.31,1.16,1.95
317100.0,0.31,3.72,-2.08
317200.0,0.79,0.61,1.28
317300.0,0.67,3.11,-0.73
317400.0,-0.79,1.46,0.31
317500.0,-2.08,2.26,-1.65
317600.0,-1.77,1.46,-0.06
317700.0,-1.89,-1.22,0.43
317800.0,0.92,-1.53,1.04
317900.0,1.89,-1.71,1.1
318000.0,0.55,0.18,-1.1
318100.0,0.55,1.4,-0.67
318200.0,1.04,1.59,-1.53
318300.0,-2.08,1.53,-0.43
318400.0,-2.14,-0.37,0.61
318500.0,-1.34,-1.46,0.55
318600.0,1.53,-1.53,-0.06
318700.0,-0.31,-0.37,0.49
318800.0,1.65,2.93,-3.11
318900.0,0.92,0.31,0.55
319000.0,1.77,0.92,-0.43
319100.0,-0.67,0.85,-0.79
319200.0,-0.61,0.24,0.55
319300.0,-0.73,-1.53,1.4
319400.0,0.24,-0.55,1.53
319500.0,3.3,-0.43,1.95
319600.0,1.28,-0.67,0.79
319700.0,0.73,0.0,1.77
319800.0,0.18,-0.18,0.61
319900.0,0.79,-0.85,1.04
320000.0,2.44,-0.43,1.83
320100.0,-0.31,-1.77,1.34
320200.0,-0.98,-2.81,1.59
320300.0,-0.37,-1.4,0.61
320400.0,-1.22,1.89,0.73
320500.0,0.73,0.0,0.49
320600.0,1.89,-1.34,-0.79
320700.0,-0.61,-0.73,0.49
320800.0,1.16,-1.53,1.22
320900.0,0.55,-1.1,0.85
321000.0,0.67,-1.46,1.22
321100.0,-0.37,-2.14,1.71
321200.0,2.01,-1.1,2.01
321300.0,0.85,-2.08,0.18
321400.0,-1.16,1.83,1.16
321500.0,0.18,1.16,-1.59
321600.0,0.37,1.4,-0.49
321700.0,0.43,1.83,-1.04
321800.0,3.91,1.04,0.24
321900.0,3.23,-0.18,0.61
322000.0,19.53,-3.3,0.43
322100.0,19.17,0.06,0.0
322200.0,36.56,0.55,-0.24
322300.0,41.38,4.64,6.23
322400.0,42.18,14.4,-4.27
322500.0,142.82,17.03,7.26
322600.0,21.91,13.43,3.54
322700.0,-34.0,3.17,-1.95
322800.0,1.34,2.69,3.97
322900.0,-10.01,3.23,1.53
323000.0,-9.34,-2.69,-1.04
323100.0,1.16,0.31,2.14
323200.0,-4.76,0.85,-1.65
323300.0,-7.51,4.52,-0.67
323400.0,1.34,2.01,5.31
323500.0,4.03,-0.73,0.79
323600.0,-3.54,5.13,6.29
323700.0,-9.77,-2.38,0.67
323800.0,-11.05,-8.06,-9.22
323900.0,-4.27,-2.62,-0.73
324000.0,-7.57,-4.82,-4.7
324100.0,0.61,-4.76,-4.39
324200.0,3.05,-1.46,-0.85
324300.0,0.85,-0.37,-1.04
324400.0,0.0,1.46,-2.81
324500.0,5.8,-4.7,-5.0
324600.0,-1.46,-0.43,-3.11
324700.0,0.12,-1.46,-1.59
324800.0,-1.89,-0.12,-1.65
324900.0,-1.83,0.61,-3.05
325000.0,-3.78,-0.31,-3.6
325100.0,0.85,-0.92,-3.11
325200.0,-9.52,-3.05,-7.2
325300.0,-10.19,-2.2,-6.59
325400.0,-18.55,-4.39,-10.07
325500.0,3.17,1.95,3.17
325600.0,-0.12,0.79,1.89
325700.0,1.95,1.89,2.26
325800.0,-8.06,2.81,6.47
325900.0,3.85,1.34,3.66
326000.0,3.66,-0.49,2.08
326100.0,1.65,0.18,-0.98
326200.0,-1.95,0.67,-1.16
326300.0,1.83,0.18,0.37
326400.0,-0.12,0.49,0.61
326500.0,0.98,-2.87,0.73
326600.0,-1.53,1.95,0.31
326700.0,-3.6,1.28,-2.08
326800.0,3.85,1.28,2.2
326900.0,-0.37,-0.43,-0.55
327000.0,-1.4,1.34,-0.79
327100.0,0.61,0.18,0.0
327200.0,-1.04,1.53,-0.24
327300.0,-1.65,0.37,-2.32
327400.0,0.67,0.85,0.18
327500.0,-2.69,-1.1,-0.55
327600.0,0.55,-0.79,2.32
327700.0,-0.12,-1.16,2.62
327800.0,-2.69,-0.67,0.37
327900.0,-2.38,0.79,0.67
328000.0,0.18,0.79,0.55
328100.0,1.28,0.49,1.28
328200.0,-1.4,-0.31,-0.49
328300.0,1.59,2.93,1.1
328400.0,1.46,-1.22,1.53
328500.0,-1.16,-0.61,0.06
328600.0,-3.3,-0.92,-1.34
328700.0,-1.4,1.4,1.59
328800.0,-1.95,0.0,-1.22
328900.0,-1.4,-0.24,0.12
329000.0,-3.17,-0.18,-0.61
329100.0,-2.5,1.83,-0.92
329200.0,-0.85,1.95,1.83
329300.0,-1.71,-1.46,-0.12
329400.0,1.28,-0.98,1.28
329500.0,6.9,2.08,5.07
329600.0,4.09,-0.12,3.36
329700.0,-1.59,-0.43,0.0
329800.0,-1.4,2.14,-0.92
329900.0,-6.35,1.95,-2.99
330000.0,-0.49,0.18,1.1
330100.0,6.53,-2.56,-0.12
330200.0,0.37,2.14,1.53
330300.0,-0.18,-0.55,-0.43
330400.0,-0.79,1.59,-0.55
330500.0,-0.31,0.98,-0.98
330600.0,-3.3,0.73,0.24
330700.0,-2.87,0.37,-0.37
330800.0,-1.22,1.83,1.71
330900.0,2.5,-3.85,0.49
331000.0,2.08,0.67,1.1
331100.0,-1.22,0.18,0.85
331200.0,-3.85,-1.34,-0.49
331300.0,-2.93,0.92,0.73
331400.0,-3.6,-0.85,-0.43
331500.0,-4.27,-0.49,-0.43
331600.0,2.93,-1.1,2.32
331700.0,0.55,-1.22,0.98
331800.0,3.23,-1.34,-1.28
331900.0,-2.75,3.48,-1.83
332000.0,0.73,-1.83,0.24
332100.0,0.0,0.61,2.69
332200.0,-0.61,-0.31,1.22
332300.0,2.26,0.79,1.53
332400.0,-1.65,0.31,0.43
332500.0,0.85,0.24,-0.31
332600.0,1.16,1.04,-0.55
332700.0,3.66,-0.43,2.38
332800.0,0.37,0.85,-0.37
332900.0,-0.31,0.37,0.0
333000.0,-0.67,0.37,-0.98
333100.0,-0.79,0.98,-0.12
333200.0,0.92,-1.28,1.53
333300.0,-0.18,-1.65,-0.92
333400.0,-2.87,0.24,-0.37
333500.0,3.05,-2.5,1.53
333600.0,1.77,0.06,1.95
333700.0,1.53,-2.01,0.49
333800.0,-0.49,0.0,-0.18
333900.0,1.04,-1.16,0.12
334000.0,1.16,0.49,1.1
334100.0,-3.97,0.24,-1.77
334200.0,1.65,0.55,1.22
334300.0,-1.71,0.67,0.06
334400.0,-61.77,1.83,-17.33
334500.0,25.88,-0.73,23.32
334600.0,-6.77,-0.61,-9.34
334700.0,-106.32,28.32,-57.86
334800.0,-69.82,16.36,-12.57
334900.0,-134.28,7.39,21.18
335000.0,-172.0,-14.4,20.32
335100.0,-216.55,0.92,-7.39
335200.0,-28.75,0.37,0.73
335300.0,-35.58,5.68,1.95
335400.0,-8.0,0.61,4.82
335500.0,107.79,3.42,-23.07
335600.0,107.42,18.92,-12.63
335700.0,158.45,46.57,-15.01
335800.0,205.81,10.01,-1.1
335900.0,218.57,25.51,13.0
336000.0,133.24,37.11,-6.65
336100.0,88.38,68.05,44.19
336200.0,156.19,73.18,67.38
336300.0,-17.03,30.82,29.97
336400.0,-110.84,24.96,10.19
336500.0,-49.19,23.13,25.76
336600.0,-9.95,-17.09,45.1
336700.0,12.15,-51.21,3.72
336800.0,12.76,-63.11,-11.11
336900.0,12.57,-52.55,-48.77
337000.0,-41.93,-14.4,-76.54
337100.0,-23.44,22.77,-36.13
337200.0,-49.8,45.65,6.71
337300.0,-56.03,49.5,39.61
337400.0,-61.83,-11.05,49.62
337500.0,-22.52,-50.17,29.11
337600.0,-45.59,-78.37,-32.35
337700.0,-23.38,-25.15,-94.06
337800.0,-101.81,43.82,-80.08
337900.0,-30.09,70.01,6.35
338000.0,-18.92,52.92,51.27
338100.0,2.56,2.2,78.61
338200.0,-30.15,-39.43,65.37
338300.0,-23.99,-76.48,17.7
338400.0,-31.43,-60.0,-80.57
338500.0,-0.98,-6.59,-95.64
338600.0,-2.32,75.01,-50.66
338700.0,-11.11,70.86,7.81
338800.0,2.75,43.03,71.72
338900.0,3.05,1.16,107.36
339000.0,-9.4,-37.05,86.3
339100.0,-41.08,-80.63,52.61
339200.0,-50.42,-68.42,-62.81
339300.0,-22.95,-22.77,-108.22
339400.0,-8.73,26.06,-107.48
339500.0,-14.59,78.37,-46.75
339600.0,-1.59,69.64,26.49
339700.0,4.52,47.36,70.19
339800.0,-4.21,10.93,129.21
339900.0,-31.62,-31.31,76.78
340000.0,-30.88,-68.97,43.52
340100.0,-63.23,-93.38,-27.28
340200.0,-14.22,-31.56,-45.78
340300.0,0.12,-5.31,-93.69
340400.0,6.84,41.02,-77.03
340500.0,-12.82,82.46,-47.61
340600.0,-0.31,67.32,25.27
340700.0,16.48,27.53,91.49
340800.0,-13.31,-24.23,101.44
340900.0,-45.78,-30.76,42.11
341000.0,-45.72,-63.48,-10.56
341100.0,-62.01,-50.35,-96.37
341200.0,-6.96,-22.16,-91.98
341300.0,-10.13,55.18,-100.04
341400.0,-3.85,88.81,-39.43
341500.0,-2.81,58.53,59.02
341600.0,-16.91,27.16,83.31
341700.0,-88.26,7.57,107.24
341800.0,-24.84,-75.62,42.42
341900.0,-57.19,-12.63,-15.93
342000.0,15.01,-66.28,-87.77
342100.0,30.46,-22.95,-112.0
342200.0,34.91,46.33,-82.7
342300.0,-9.58,100.83,-29.3
342400.0,-35.89,82.95,18.55
342500.0,-38.09,18.68,78.67
342600.0,-53.41,-50.42,92.9
342700.0,-69.95,-69.27,35.16
342800.0,-13.06,-38.45,-49.5
342900.0,0.98,-33.26,-84.9
343000.0,27.89,23.93,-86.24
343100.0,32.59,55.6,-52.86
343200.0,11.17,95.64,-0.73
343300.0,25.94,57.31,36.13
343400.0,10.13,28.26,64.39
343500.0,-8.42,-18.55,74.4
343600.0,-29.36,-63.42,56.15
343700.0,-15.5,-81.67,22.64
343800.0,28.38,-114.07,-25.39
343900.0,18.49,-70.56,-34.55
344000.0,14.89,11.29,-49.5
344100.0,3.11,56.46,-59.94
344200.0,14.28,74.95,-18.86
344300.0,3.85,58.41,3.05
344400.0,5.25,26.73,57.31
344500.0,-11.9,-6.23,64.7
344600.0,-55.18,-30.4,47.36
344700.0,-23.74,-86.06,36.99
344800.0,21.91,-75.87,-13.37
344900.0,9.28,-3.3,-66.77
345000.0,31.07,18.8,-62.38
345100.0,17.7,60.06,-54.63
345200.0,12.82,85.51,-5.98
345300.0,-1.89,51.33,15.99
345400.0,18.68,18.43,70.98
345500.0,-14.04,-16.78,66.89
345600.0,-48.83,-25.33,39.31
345700.0,-49.19,-34.42,7.75
345800.0,-30.33,-36.99,-36.32
345900.0,2.08,3.05,-43.76
346000.0,42.54,28.75,-32.84
346100.0,38.64,51.27,-35.89
346200.0,23.93,47.42,5.19
346300.0,4.7,40.53,39.73
346400.0,-14.34,6.41,60.91
346500.0,-40.34,-11.9,59.88
346600.0,-58.96,-48.65,-5.49
346700.0,-62.07,-84.11,-29.97
346800.0,3.23,-41.75,-43.95
346900.0,10.74,3.48,-67.08
347000.0,26.61,23.86,-58.41
347100.0,15.44,63.29,-23.62
347200.0,11.54,56.58,24.48
347300.0,-4.15,18.31,54.08
347400.0,-35.22,-13.85,69.15
347500.0,-42.79,-34.79,65.73
347600.0,-42.79,-62.87,5.86
347700.0,-35.64,-58.29,-35.28
347800.0,30.27,-48.95,-70.8
347900.0,23.25,1.83,-68.42
348000.0,27.53,58.9,-47.0
348100.0,24.9,72.27,-1.83
348200.0,-5.0,38.27,34.91
348300.0,-34.0,-11.05,66.89
348400.0,-48.77,-35.52,81.54
348500.0,-57.86,-54.26,4.64
348600.0,-55.85,-31.19,-52.31
348700.0,8.06,-13.18,-86.98
348800.0,11.6,21.73,-99.12
348900.0,15.32,73.43,-50.66
349000.0,22.95,76.17,-10.31
349100.0,-5.0,58.78,31.37
349200.0,-2.26,16.97,68.85
349300.0,-23.32,-36.93,61.1
349400.0,-49.8,-53.28,26.61
349500.0,-38.02,-33.81,-18.74
349600.0,13.12,-18.43,-48.52
349700.0,29.91,-0.37,-81.12
349800.0,26.98,40.59,-66.04
349900.0,2.56,74.04,-40.1
350000.0,0.0,23.01,-3.6
350100.0,-1.34,-5.55,13.92
350200.0,3.85,-0.92,49.26
350300.0,10.93,-21.85,34.55
350400.0,-12.88,0.06,-9.77
350500.0,13.55,-0.61,18.25
350600.0,28.69,-6.71,22.16
350700.0,20.87,-2.99,16.24
350800.0,7.02,-3.72,-0.18
350900.0,2.08,1.4,6.47
351000.0,52.49,0.43,-10.8
351100.0,-42.79,0.43,17.21
351200.0,40.41,61.28,64.7
351300.0,61.77,76.48,-11.11
351400.0,-10.07,9.28,-6.9
351500.0,-63.78,27.47,62.56
351600.0,-16.72,3.91,36.07
351700.0,-54.5,-22.64,-53.65
351800.0,-41.02,-43.88,-21.42
351900.0,-51.57,-46.94,-47.0
352000.0,-7.51,4.88,-27.53
352100.0,39.25,62.44,-12.51
352200.0,45.41,72.88,-12.51
352300.0,16.91,16.05,73.18
352400.0,-14.95,-10.19,53.04
352500.0,-26.18,-42.11,40.22
352600.0,-50.05,-31.8,13.12
352700.0,-8.85,-63.66,6.47
352800.0,-29.3,-38.02,-29.17
352900.0,37.48,-23.62,-38.88
353000.0,51.33,21.42,-36.87
353100.0,50.84,32.29,-9.28
353200.0,26.86,40.04,-21.55
353300.0,-3.11,24.9,35.34
353400.0,-30.64,-11.66,60.06
353500.0,-80.44,-16.66,21.61
353600.0,-61.71,-24.05,14.53
353700.0,-19.29,-39.37,-30.88
353800.0,59.63,-68.05,11.72
353900.0,25.82,4.15,-85.14
354000.0,54.44,10.31,-33.08
354100.0,59.51,42.36,-2.69
354200.0,42.24,9.03,29.91
354300.0,-4.58,2.81,7.87
354400.0,-43.7,-3.6,36.32
354500.0,-68.36,-15.2,12.21
354600.0,-37.29,-19.96,-18.13
354700.0,5.55,-38.57,0.61
354800.0,22.4,-5.13,-29.54
354900.0,25.63,22.58,-44.49
355000.0,37.11,13.61,17.94
355100.0,20.81,24.66,4.39
355200.0,-0.37,22.46,7.87
355300.0,-39.67,22.22,16.36
355400.0,-61.89,-30.94,42.48
355500.0,-28.93,-32.53,33.57
355600.0,-45.65,-18.49,-10.62
355700.0,-6.84,1.53,-40.28
355800.0,40.04,-6.04,13.92
355900.0,9.28,15.26,27.4
356000.0,33.33,22.71,24.17
356100.0,20.94,22.71,31.13
356200.0,-8.12,41.63,6.23
356300.0,-14.59,-19.17,73.06
356400.0,-19.59,6.53,21.0
356500.0,-45.84,17.82,32.23
356600.0,18.07,58.47,-80.69
356700.0,19.84,69.15,-42.24
356800.0,24.78,6.84,-39.25
356900.0,19.78,-8.85,-24.35
357000.0,41.5,-10.25,32.04
357100.0,33.45,-20.94,24.48
357200.0,12.7,-17.21,29.72
357300.0,-46.63,17.4,-8.06
357400.0,-77.39,5.37,-20.81
357500.0,-75.62,17.46,-9.89
357600.0,-11.96,-17.52,-19.53
357700.0,21.12,3.6,-17.7
357800.0,41.75,24.48,-41.69
357900.0,39.92,38.15,1.83
358000.0,28.75,6.47,34.06
358100.0,5.62,12.57,28.02
358200.0,-39.79,-4.39,13.37
358300.0,-90.33,76.54,-13.0
358400.0,-60.67,5.43,-24.41
358500.0,17.21,-58.78,2.75
358600.0,45.53,21.48,-65.37
358700.0,56.46,49.68,-94.97
358800.0,43.46,28.26,-25.39
358900.0,48.16,29.79,7.39
359000.0,-5.31,-11.23,53.16
359100.0,-53.04,-9.7,38.27
359200.0,18.86,-31.68,33.08
359300.0,46.26,8.61,-10.07
359400.0,24.05,2.99,-39.06
359500.0,-13.12,-3.36,-69.09
359600.0,-46.02,-24.35,-46.2
359700.0,-86.24,-71.78,-11.11
359800.0,-87.1,-45.84,23.74
359900.0,-96.31,8.06,23.44
360000.0,33.69,8.67,47.06
360100.0,73.12,12.39,-15.2
360200.0,124.82,-28.08,-8.36
360300.0,6.23,36.8,-74.58
360400.0,-7.63,6.96,-35.16
360500.0,-50.23,-25.02,-19.9
360600.0,-71.66,-42.79,14.83
360700.0,-100.65,-39.25,13.85
360800.0,-73.49,17.46,25.33
360900.0,0.37,11.84,58.11
361000.0,73.36,36.56,27.89
361100.0,84.72,27.71,-28.69
361200.0,67.57,22.64,-59.14
361300.0,20.69,38.51,-74.16
361400.0,-6.23,-14.34,-36.25
361500.0,-50.84,-66.65,19.29
361600.0,-71.84,-71.17,25.09
361700.0,-78.43,-27.53,53.77
361800.0,-82.82,29.17,28.63
361900.0,27.77,8.97,68.97
362000.0,52.19,33.63,12.88
362100.0,94.36,36.07,-23.8
362200.0,38.02,74.16,-56.95
362300.0,54.81,-19.17,-46.33
362400.0,4.64,-42.18,-61.4
362500.0,-36.74,-67.57,3.97
362600.0,-79.77,-52.98,8.61
362700.0,-60.42,-48.22,53.65
362800.0,-27.83,14.95,72.39
362900.0,111.21,13.43,60.36
363000.0,115.36,54.75,-4.76
363100.0,48.46,46.02,-64.51
363200.0,-20.2,47.0,-75.5
363300.0,-22.58,-21.36,-44.01
363400.0,-33.69,-53.47,-9.7
363500.0,-87.22,-48.89,9.09
363600.0,-50.05,-72.63,62.5
363700.0,-21.24,-24.05,88.07
363800.0,47.67,36.44,34.61
363900.0,100.52,44.62,4.21
364000.0,91.0,28.75,-53.04
364100.0,-6.41,87.04,-72.39
364200.0,-2.5,23.07,-50.78
364300.0,-31.56,-108.58,41.63
364400.0,-53.71,-88.13,2.38
364500.0,-60.18,-53.65,74.04
364600.0,-26.25,2.56,76.05
364700.0,-23.74,29.97,36.5
364800.0,57.43,38.7,0.12
364900.0,90.94,76.84,-4.33
365000.0,84.11,86.12,-81.97
365100.0,-25.27,-35.71,-59.45
365200.0,-29.17,-44.74,-52.25
365300.0,-73.24,-96.92,12.82
365400.0,-63.11,-121.15,93.51
365500.0,-49.87,68.85,43.33
365600.0,25.15,13.61,40.47
365700.0,69.34,39.25,8.48
365800.0,114.14,76.17,-33.63
365900.0,57.68,57.56,-97.11
366000.0,66.83,-64.51,-19.04
366100.0,-37.17,-59.27,-58.65
366200.0,-78.37,-130.74,4.76
366300.0,-71.84,-74.4,65.61
366400.0,28.38,-72.33,139.95
366500.0,47.3,26.73,32.65
366600.0,95.76,24.66,21.48
366700.0,52.19,94.36,-52.86
366800.0,32.78,30.58,-60.85
366900.0,-33.57,-29.72,-58.04
367000.0,-60.97,-82.15,-27.16
367100.0,-33.69,-62.32,-15.75
367200.0,-28.93,17.58,52.8
367300.0,25.27,10.86,69.82
367400.0,41.75,10.5,-3.3
367500.0,22.03,41.75,-29.11
367600.0,1.28,31.92,-56.58
367700.0,-6.96,-13.06,-40.95
367800.0,-37.48,-40.83,-26.37
367900.0,-35.4,-56.64,42.3
368000.0,-9.09,-25.51,91.86
368100.0,-22.89,8.0,49.56
368200.0,17.82,27.59,43.52
368300.0,4.27,53.53,-3.36
368400.0,50.54,53.71,-39.12
368500.0,13.49,34.67,-78.0
368600.0,-17.21,-5.49,-63.84
368700.0,7.69,-76.6,11.9
368800.0,17.33,-93.69,54.57
368900.0,5.43,-32.17,132.81
369000.0,24.41,12.82,53.16
369100.0,29.6,25.76,29.97
369200.0,21.12,46.94,-32.04
369300.0,6.23,78.61,-81.12
369400.0,37.6,28.69,-105.22
369500.0,36.38,-16.97,-70.62
369600.0,4.03,-51.76,-51.57
369700.0,-38.64,-52.06,20.14
369800.0,-13.79,-69.34,69.7
369900.0,27.4,7.2,82.7
370000.0,74.83,86.12,-22.46
370100.0,35.16,95.64,-20.39
370200.0,5.25,41.69,-56.7
370300.0,-14.89,38.57,-46.08
370400.0,-55.3,-16.17,-49.32
370500.0,-50.42,-51.7,-8.67
370600.0,-53.28,-27.16,63.72
370700.0,-1.89,50.66,73.43
370800.0,29.11,111.88,5.98
370900.0,23.38,121.28,-58.47
371000.0,9.83,69.95,-109.62
371100.0,0.06,-36.74,-80.02
371200.0,-9.52,-152.28,-42.3
371300.0,-23.01,-169.31,86.91
371400.0,-17.03,-48.77,131.47
371500.0,23.74,81.67,69.09
371600.0,83.68,131.29,41.14
371700.0,49.32,187.74,-94.85
371800.0,36.38,24.72,-40.47
371900.0,-5.98,22.46,-83.68
372000.0,-18.13,-38.45,-112.49
372100.0,-13.61,-98.63,-41.38
372200.0,54.5,-133.3,73.49
372300.0,33.45,1.28,104.06
372400.0,57.56,147.28,24.35
372500.0,77.09,164.37,-54.26
372600.0,37.54,135.8,-63.72
372700.0,2.87,65.98,-101.99
372800.0,6.71,-12.02,-80.81
372900.0,21.73,-44.98,-152.22
373000.0,-27.28,-149.6,-27.1
373100.0,33.69,-218.93,113.34
373200.0,131.77,-114.07,107.3
373300.0,60.79,23.38,115.48
373400.0,32.04,187.87,14.47
373500.0,88.32,128.23,-60.79
373600.0,68.66,93.26,-107.06
373700.0,31.01,-17.7,-90.45
373800.0,-45.53,-78.31,-19.84
373900.0,45.78,-187.26,90.88
374000.0,-38.33,-133.0,87.65
374100.0,-2.56,-79.65,91.19
374200.0,-15.69,29.11,52.73
374300.0,20.45,103.21,18.92
374400.0,90.15,52.0,10.07
374500.0,-1.83,35.4,-39.49
374600.0,11.17,-67.02,-34.12
374700.0,90.03,-202.27,1.1
374800.0,-79.22,-117.55,116.94
374900.0,-65.92,-39.31,39.06
375000.0,-4.09,24.84,40.65
375100.0,41.26,44.8,16.24
375200.0,96.74,11.78,-30.27
375300.0,90.39,0.18,-72.33
375400.0,60.12,-80.02,-7.75
375500.0,-29.3,-87.77,-22.16
375600.0,-93.38,-34.3,-2.5
375700.0,-118.47,-37.48,147.09
375800.0,-96.56,46.2,77.82
375900.0,-16.17,80.32,15.93
376000.0,85.39,85.69,-37.54
376100.0,73.73,104.92,-43.7
376200.0,82.7,46.14,-30.4
376300.0,52.31,-24.9,-44.8
376400.0,-2.99,-115.36,-15.69
376500.0,0.73,-173.22,-2.87
376600.0,-138.79,-87.28,105.04
376700.0,-16.54,-13.79,54.99
376800.0,0.79,42.6,85.39
376900.0,42.79,135.68,33.33
377000.0,105.65,99.37,-41.5
377100.0,130.0,24.35,-78.55
377200.0,-25.82,14.83,-50.23
377300.0,-49.87,56.76,-121.28
377400.0,-91.0,-17.4,-78.31
377500.0,-52.8,-84.41,52.73
377600.0,-30.33,21.48,-3.48
377700.0,22.77,24.9,40.65
377800.0,79.1,17.7,116.64
377900.0,124.63,90.88,46.75
378000.0,-94.73,-56.76,-38.15
378100.0,-22.28,39.67,-99.0
378200.0,-35.64,60.61,-105.59
378300.0,-154.72,-106.69,-94.06
378400.0,50.9,-234.31,85.02
378500.0,-7.32,-52.73,24.66
378600.0,57.25,-18.13,20.02
378700.0,44.43,58.47,-21.61
378800.0,-38.82,34.79,37.17
378900.0,-13.98,12.51,1.04
379000.0,-11.35,94.73,-54.57
379100.0,63.54,80.02,-47.61
379200.0,79.96,-18.8,22.64
379300.0,-214.11,-87.16,-29.48
379400.0,50.29,-142.27,-87.71
379500.0,147.03,-149.17,23.8
379600.0,-59.69,-43.03,88.75
379700.0,21.0,15.81,45.65
379800.0,57.5,100.71,-1.22
379900.0,98.75,76.29,-16.36
380000.0,28.26,121.77,-81.42
380100.0,-48.22,115.54,-99.73
380200.0,-56.4,49.38,-108.46
380300.0,-0.12,43.82,-117.8
380400.0,135.13,-207.28,-37.9
380500.0,-123.35,-121.46,37.48
380600.0,63.42,-179.02,148.01
380700.0,318.91,-75.07,152.89
380800.0,104.49,110.9,-45.53
380900.0,30.82,117.25,-89.6
381000.0,-2.44,58.29,-113.28
381100.0,-40.71,60.97,-113.71
381200.0,0.92,-2.08,-87.95
381300.0,-67.08,-128.97,-75.99
381400.0,-127.44,-203.98,19.29
381500.0,18.13,-70.13,104.98
381600.0,102.05,-22.16,158.02
381700.0,192.81,-5.55,147.16
381800.0,110.05,99.55,-4.82
381900.0,69.03,81.85,-52.73
382000.0,-3.6,60.3,-125.55
382100.0,3.17,20.63,-152.16
382200.0,-11.72,-43.58,-57.98
382300.0,56.34,-78.61,1.22
382400.0,38.39,-102.11,135.93
382500.0,42.66,-113.53,163.02
382600.0,-41.69,14.65,96.19
382700.0,-47.18,90.76,81.91
382800.0,-7.45,119.26,30.52
382900.0,13.49,92.35,-57.86
383000.0,29.05,80.51,-90.03
383100.0,-69.64,30.21,-144.04
383200.0,15.26,-102.97,-47.06
383300.0,19.41,-217.53,-62.01
383400.0,112.43,-211.24,99.49
383500.0,45.65,-7.39,86.49
383600.0,-26.79,94.97,74.22
383700.0,7.45,98.51,46.81
383800.0,11.47,114.44,38.09
383900.0,24.96,150.57,-40.22
384000.0,54.69,97.66,-80.08
384100.0,65.25,-36.19,-185.18
384200.0,-55.73,-123.47,-117.61
384300.0,19.04,-71.72,-14.47
384400.0,37.17,-207.82,-10.01
384500.0,78.06,-60.55,66.35
384600.0,-0.73,-4.33,186.95
384700.0,76.78,117.25,167.18
384800.0,95.64,138.24,35.58
384900.0,41.02,155.58,-83.13
385000.0,44.74,4.82,-186.52
385100.0,-45.47,-20.87,-151.61
385200.0,-3.91,-157.59,-74.89
385300.0,88.81,-140.5,-22.09
385400.0,35.46,-105.16,43.15
385500.0,80.75,-63.23,108.52
385600.0,30.76,8.36,124.15
385700.0,10.25,55.48,69.27
385800.0,3.66,68.91,38.02
385900.0,12.94,145.14,15.32
386000.0,38.02,162.66,-18.07
386100.0,39.06,85.82,-101.07
386200.0,15.26,-33.08,-148.25
386300.0,99.37,-193.54,-25.63
386400.0,0.73,-219.91,11.6
386500.0,22.77,-217.35,86.3
386600.0,31.98,26.73,31.8
386700.0,41.63,62.13,62.87
386800.0,10.74,59.51,40.1
386900.0,81.05,63.84,-2.87
387000.0,78.98,99.61,-40.47
387100.0,56.88,76.17,-116.09
387200.0,-384.16,-67.32,-165.41
387300.0,-60.85,-85.45,-145.81
387400.0,33.26,-113.65,34.0
387500.0,-69.09,-90.39,24.72
387600.0,156.13,-105.04,92.53
387700.0,127.14,17.33,127.99
387800.0,115.84,82.95,67.81
387900.0,84.47,43.46,-29.11
388000.0,126.95,33.75,-59.14
388100.0,107.67,-7.87,-73.36
388200.0,-1.28,-53.65,-68.48
388300.0,-78.19,-64.82,-70.01
388400.0,18.92,-67.63,29.6
388500.0,-45.78,-59.69,74.16
388600.0,17.64,-17.88,40.16
388700.0,-22.52,13.12,-2.87
388800.0,6.04,20.39,0.79
388900.0,127.44,39.25,-17.33
389000.0,-12.57,119.69,-121.83
389100.0,-15.01,10.07,-76.72
389200.0,8.18,-43.09,-23.38
389300.0,-53.1,-119.75,93.51
389400.0,-64.64,-136.54,117.61
389500.0,-22.58,32.96,104.13
389600.0,-13.0,100.22,80.63
389700.0,-14.22,113.16,11.29
389800.0,51.09,93.69,-49.74
389900.0,66.28,81.42,-90.09
390000.0,60.73,-17.21,-125.79
390100.0,24.6,-77.88,-47.06
390200.0,-43.52,-229.06,-73.0
390300.0,12.15,-109.31,104.19
390400.0,-25.02,5.07,48.34
390500.0,-3.42,56.09,82.46
390600.0,-30.94,150.02,105.77
390700.0,-1.28,98.75,47.18
390800.0,36.99,110.96,-61.65
390900.0,71.9,62.13,-92.9
391000.0,72.88,-126.59,-66.83
391100.0,-8.61,-183.9,-3.42
391200.0,67.81,-156.62,80.81
391300.0,-37.23,1.59,115.54
391400.0,-23.19,31.8,90.33
391500.0,-36.32,77.33,41.81
391600.0,22.46,87.28,37.66
391700.0,44.62,82.34,3.66
391800.0,29.72,95.09,-63.54
391900.0,42.11,65.37,-96.5
392000.0,101.87,-37.66,-108.28
392100.0,14.4,-110.53,-72.75
392200.0,33.14,-173.4,43.33
392300.0,-3.66,-82.34,64.45
392400.0,15.44,-17.33,64.15
392500.0,18.55,119.32,54.63
392600.0,4.52,134.03,28.44
392700.0,53.65,106.08,-25.88
392800.0,63.23,80.81,-105.9
392900.0,80.69,14.34,-108.83
393000.0,28.26,-128.72,-37.84
393100.0,23.62,-166.69,50.96
393200.0,-66.28,-154.85,119.14
393300.0,-112.85,-40.83,177.31
393400.0,-13.98,86.12,101.44
393500.0,0.67,166.02,55.36
393600.0,85.51,138.61,-15.69
393700.0,102.36,124.76,-112.3
393800.0,103.64,28.38,-117.61
393900.0,107.54,-89.9,-115.97
394000.0,-59.27,-217.9,-22.03
394100.0,41.02,-194.89,127.14
394200.0,-36.8,0.85,167.3
394300.0,53.53,93.93,119.87
394400.0,98.02,100.04,30.94
394500.0,60.18,133.12,-81.42
394600.0,71.72,31.92,-83.44
394700.0,68.97,-75.74,-120.85
394800.0,-77.15,-159.36,-81.54
394900.0,-30.46,-211.0,60.12
395000.0,-11.54,-104.25,86.0
395100.0,19.23,-32.29,86.73
395200.0,8.18,10.44,49.38
395300.0,38.45,24.35,80.99
395400.0,34.91,80.32,71.9
395500.0,75.87,124.39,31.56
395600.0,65.49,94.18,-57.98
395700.0,68.24,14.95,-77.88
395800.0,62.26,-64.94,-88.26
395900.0,48.03,-146.42,-27.77
396000.0,32.59,-195.43,53.28
396100.0,0.49,-163.82,111.15
396200.0,-7.02,22.34,132.75
396300.0,-60.97,100.59,72.2
396400.0,-0.12,97.72,42.05
396500.0,40.89,114.62,21.18
396600.0,62.19,130.07,-46.39
396700.0,79.96,62.68,-97.72
396800.0,107.73,-182.98,-71.47
396900.0,-102.54,-153.63,-6.65
397000.0,41.56,-179.81,84.47
397100.0,5.43,-2.87,95.28
397200.0,-5.55,138.73,58.65
397300.0,-5.86,145.08,-26.79
397400.0,35.95,67.26,-133.18
397500.0,-48.71,35.46,-91.31
397600.0,-14.83,-75.07,-32.71
397700.0,-54.02,-86.98,5.0
397800.0,-68.97,-65.0,46.63
397900.0,102.66,-13.61,111.88
398000.0,2.93,47.18,45.72
398100.0,67.93,55.66,11.96
398200.0,113.1,49.38,0.79
398300.0,85.27,14.71,-12.39
398400.0,-36.62,12.51,-11.96
398500.0,-4.39,-11.41,4.03
398600.0,-6.96,-0.55,7.39
398700.0,-21.79,8.3,-13.37
398800.0,-15.14,-13.31,0.37
398900.0,49.93,-85.94,43.4
399000.0,-196.47,-22.4,32.53
399100.0,-37.29,-8.61,26.55
399200.0,-63.17,156.43,-36.93
399300.0,39.06,74.28,-45.84
399400.0,15.93,20.69,-82.15
399500.0,83.5,-32.47,-34.67
399600.0,-11.6,-60.91,-5.8
399700.0,20.39,-7.32,13.92
399800.0,-59.75,-7.26,9.46
399900.0,-97.29,-15.75,6.84
400000.0,-0.98,-12.08,21.67
400100.0,-86.79,-10.8,9.4
400200.0,23.25,-16.91,-28.63
400300.0,36.68,-19.04,-6.29
400400.0,33.2,-1.77,4.7
400500.0,69.82,-5.07,7.39
400600.0,67.44,-20.32,14.71
400700.0,63.78,-5.74,5.0
400800.0,-1.46,-6.96,0.31
400900.0,36.87,-13.12,6.29
401000.0,15.75,4.76,-7.87
401100.0,5.07,10.07,11.11
401200.0,35.77,-0.24,10.68
401300.0,24.35,5.98,9.34
401400.0,0.61,0.92,19.41
401500.0,26.67,3.72,19.84
401600.0,19.23,13.55,23.5
401700.0,26.18,-0.79,39.37
401800.0,53.96,-2.14,13.79
401900.0,66.47,21.79,6.96
402000.0,192.2,97.29,47.79
402100.0,43.21,47.3,31.8
402200.0,-13.79,-1.65,-1.71
402300.0,-26.86,-5.43,6.84
402400.0,-129.64,-41.38,-19.65
402500.0,3.97,-1.04,-2.08
402600.0,-20.2,12.39,-6.77
402700.0,-80.93,-3.23,-2.14
402800.0,-0.37,-5.19,-17.33
402900.0,50.6,0.79,-2.01
403000.0,28.99,1.16,-10.86
403100.0,12.21,-4.82,-1.16
403200.0,2.93,-11.41,-12.76
403300.0,1.71,-1.46,-4.82
403400.0,5.07,-2.69,6.04
403500.0,5.19,-0.49,-1.77
403600.0,-12.33,-4.03,1.83
403700.0,-36.19,0.18,2.93
403800.0,-121.03,19.96,-6.23
403900.0,-33.26,3.72,23.56
404000.0,-56.4,-1.28,11.6
404100.0,-66.1,10.25,-6.65
404200.0,-7.26,-12.57,4.03
404300.0,-16.17,-14.1,0.31
404400.0,-20.75,1.28,-2.01
404500.0,-20.57,-1.46,-1.04
404600.0,-3.11,-6.53,-2.5
404700.0,-15.32,4.94,-3.85
404800.0,-10.93,2.01,-1.16
404900.0,-10.44,-2.38,-0.24
405000.0,-17.27,3.91,-3.6
405100.0,-26.61,2.81,-4.7
405200.0,-33.33,3.3,-3.36
405300.0,-95.58,13.92,-0.31
405400.0,-50.9,5.31,-1.65
405500.0,-66.53,7.08,-8.42
405600.0,-119.51,8.85,-4.03
405700.0,-66.47,-5.13,-1.4
405800.0,-77.58,2.99,2.69
405900.0,-25.09,-1.77,0.98
406000.0,-25.02,1.95,1.28
406100.0,-51.15,2.08,5.13
406200.0,-19.9,4.03,-2.38
406300.0,8.91,1.95,-0.12
406400.0,7.51,3.78,-2.26
406500.0,125.98,-1.77,-49.56
406600.0,49.38,-5.25,-28.87
406700.0,61.4,3.6,-9.89
406800.0,55.42,-0.43,-6.53
406900.0,46.51,4.7,-3.11
407000.0,8.97,2.5,0.98
407100.0,20.81,0.73,-0.12
407200.0,8.61,1.04,-1.16
407300.0,-0.37,-0.18,-0.24
407400.0,7.14,0.24,-0.49
407500.0,-6.53,1.71,0.12
407600.0,-4.58,-1.34,0.18
407700.0,-34.12,1.59,0.79
407800.0,-1.34,-1.16,-0.85
407900.0,-3.91,-1.77,1.46
408000.0,0.73,-0.49,-0.12
408100.0,-3.48,-0.92,0.73
408200.0,0.61,-0.98,0.55
408300.0,1.89,3.05,0.18
408400.0,-10.13,0.85,0.92
408500.0,-8.48,0.55,0.85
408600.0,11.35,-0.79,-2.38
408700.0,1.16,0.37,-0.49
408800.0,4.27,-0.12,-0.67
408900.0,1.46,-0.06,-0.37
409000.0,1.46,0.67,0.18
409100.0,-0.55,0.06,0.55
409200.0,1.95,-0.98,0.31
409300.0,0.49,1.28,-0.43
409400.0,4.21,-1.16,0.31
409500.0,-6.96,-0.12,0.55
409600.0,-5.62,0.31,0.18
409700.0,-9.22,-0.92,0.12
409800.0,-3.3,0.0,0.61
409900.0,1.53,-0.49,-1.71
410000.0,-1.16,-1.59,0.43
410100.0,0.18,2.08,-0.85
410200.0,-15.81,2.14,0.98
410300.0,-30.15,-4.7,-0.43
410400.0,-26.61,-6.23,0.67
410500.0,-26.37,-2.38,2.32
410600.0,3.05,-0.49,-0.06
410700.0,22.52,2.81,-1.95
410800.0,78.61,-3.54,-16.42
410900.0,76.23,10.5,-5.98
411000.0,92.96,-21.48,19.65
411100.0,68.36,-10.31,18.8
411200.0,130.86,6.77,38.57
411300.0,139.28,-6.71,42.79
411400.0,79.35,-4.88,35.52
411500.0,62.99,-32.29,33.94
411600.0,-6.84,-7.02,3.6
411700.0,-46.39,34.79,-53.47
411800.0,-46.94,-12.63,-75.13
411900.0,6.65,-8.48,-67.75
412000.0,-22.22,6.96,-18.86
412100.0,6.16,13.0,-28.08
412200.0,44.25,-8.97,-32.23
412300.0,106.99,15.5,-1.95
412400.0,-82.7,0.12,-18.13
412500.0,-60.55,-7.93,8.06
412600.0,-166.56,-23.93,-27.16
412700.0,-61.89,-7.02,25.27
412800.0,89.9,-2.81,29.3
412900.0,211.49,114.5,53.41
413000.0,280.58,94.36,166.02
413100.0,69.4,-31.86,-4.94
413200.0,118.1,-31.56,18.19
413300.0,17.82,-152.34,-10.93
413400.0,22.34,34.3,4.09
413500.0,7.2,2.38,1.22
413600.0,4.21,1.53,0.67
413700.0,0.67,0.0,0.31
413800.0,1.16,0.55,0.24
413900.0,0.79,0.24,0.31
414000.0,0.49,0.31,0.18
414100.0,0.43,0.12,0.24
414200.0,0.43,0.31,0.18
414300.0,0.31,0.37,0.06
414400.0,0.31,0.24,0.12
414500.0,0.31,0.24,0.18
414600.0,0.24,0.18,0.06
414700.0,0.31,0.18,0.18
414800.0,0.18,0.18,0.12
414900.0,0.73,0.31,0.12
415000.0,0.49,0.37,0.18
415100.0,0.24,0.18,0.06
415200.0,0.18,0.18,0.0
415300.0,0.18,0.18,0.18
415400.0,0.18,0.18,0.18
415500.0,0.18,0.18,0.06
415600.0,0.31,0.31,0.06
415700.0,0.18,0.18,0.12
415800.0,0.31,0.18,0.18
415900.0,0.43,0.61,0.0
416000.0,0.0,0.24,0.18
416100.0,0.55,0.12,0.06
416200.0,1.4,-0.24,0.37
416300.0,3.66,-0.37,1.65
416400.0,1.77,0.0,0.37
416500.0,0.0,0.18,0.12
416600.0,0.92,-0.06,0.18
416700.0,1.53,-0.24,0.85
416800.0,0.67,0.06,0.31
416900.0,-0.43,0.37,0.18
417000.0,0.49,0.06,0.31
417100.0,-0.98,0.37,0.06
417200.0,-0.67,0.49,-0.31
417300.0,0.12,-0.06,0.24
417400.0,0.12,0.24,0.06
417500.0,0.43,0.18,0.12
417600.0,-0.12,0.24,0.12
417700.0,0.0,0.06,0.12
417800.0,0.31,0.18,0.06
417900.0,0.18,0.24,0.06
418000.0,0.0,0.18,0.0
418100.0,0.12,0.24,0.06
418200.0,0.18,0.18,0.18
418300.0,0.0,0.12,0.12
418400.0,0.37,0.24,0.12
418500.0,-0.06,0.18,0.06
418600.0,0.12,0.12,0.12
418700.0,-0.06,0.18,0.12
418800.0,0.06,0.18,0.06
418900.0,0.31,0.18,0.06
419000.0,0.24,0.18,0.12
419100.0,0.37,0.18,0.06
419200.0,0.18,0.18,0.06
419300.0,0.18,0.18,0.12
419400.0,0.12,0.12,0.12
419500.0,0.18,0.18,0.06
419600.0,0.12,0.12,0.12
419700.0,0.12,0.18,0.06
419800.0,0.18,0.18,0.06
419900.0,0.18,0.18,0.06
420000.0,0.06,0.18,0.12
420100.0,0.12,0.18,0.06
420200.0,0.24,0.18,0.06
420300.0,0.12,0.18,0.12
420400.0,0.18,0.18,0.12
420500.0,0.18,0.18,0.12
420600.0,0.12,0.18,0.18
420700.0,0.12,0.18,0.12
420800.0,0.12,0.18,0.12
420900.0,0.43,0.24,0.06
421000.0,0.18,0.18,0.06
421100.0,0.18,0.18,0.06
421200.0,0.18,0.18,0.06
421300.0,0.12,0.18,0.06
421400.0,0.12,0.18,0.12
421500.0,0.12,0.18,0.06
421600.0,0.18,0.18,0.06
421700.0,0.24,0.24,0.18
421800.0,0.24,0.18,0.12
421900.0,0.18,0.18,0.06
422000.0,0.0,0.18,0.12
422100.0,0.24,0.18,0.06
422200.0,0.12,0.18,0.06
422300.0,0.06,0.18,0.06
422400.0,0.24,0.24,0.06
422500.0,0.12,0.18,0.12
422600.0,0.18,0.12,0.06
422700.0,0.24,0.18,0.12
422800.0,0.12,0.18,0.12
422900.0,0.06,0.18,0.06
423000.0,0.18,0.18,0.06
423100.0,0.0,0.18,0.06
423200.0,0.18,0.18,0.12
423300.0,0.18,0.18,0.12
423400.0,0.18,0.18,0.12
423500.0,0.18,0.18,0.06
423600.0,0.18,0.18,0.12
423700.0,0.12,0.12,0.12
423800.0,0.12,0.18,0.12
423900.0,0.12,0.18,0.06
424000.0,0.24,0.18,0.12
424100.0,0.12,0.18,0.12
424200.0,0.18,0.18,0.12
424300.0,0.12,0.12,0.12
424400.0,0.18,0.18,0.06
424500.0,0.18,0.12,0.06
424600.0,0.12,0.12,0.12
424700.0,0.18,0.18,0.12
424800.0,0.12,0.18,0.12
424900.0,0.18,0.18,0.12
425000.0,0.12,0.18,0.06
425100.0,-0.12,0.18,0.0
425200.0,0.24,0.24,0.06
425300.0,-0.06,0.18,0.06
425400.0,0.0,0.24,0.06
425500.0,0.24,0.24,0.06
425600.0,-0.12,0.31,-0.24
425700.0,0.18,0.31,0.06
425800.0,-0.12,0.43,-0.06
425900.0,0.0,0.18,0.24
426000.0,-0.24,0.43,-0.31
426100.0,0.0,0.24,0.18
426200.0,-0.06,0.37,0.0
426300.0,0.0,0.49,-0.06
426400.0,0.31,0.24,0.12
426500.0,0.67,0.12,0.24
426600.0,-0.06,-0.06,0.24
426700.0,-0.49,0.24,-0.18
426800.0,0.49,0.18,0.06
426900.0,0.31,0.06,0.06
427000.0,0.24,0.12,0.12
427100.0,0.55,0.06,0.31
427200.0,0.31,0.18,0.06
427300.0,0.12,0.18,0.06
427400.0,0.18,0.12,0.12
427500.0,0.24,0.18,0.0
427600.0,-0.18,0.12,0.06
427700.0,-0.06,0.18,0.06
427800.0,0.12,0.12,0.12
427900.0,0.37,0.12,0.12
428000.0,0.18,0.18,0.06
428100.0,0.0,0.24,0.18
428200.0,0.12,0.24,0.12
428300.0,0.12,0.18,0.12
428400.0,0.12,0.12,0.12
428500.0,0.0,0.18,0.06
428600.0,0.12,0.12,0.12
428700.0,0.37,0.18,0.12
428800.0,0.18,0.12,0.06
428900.0,0.12,0.24,0.12
429000.0,0.12,0.18,0.12
429100.0,0.06,0.18,0.06
429200.0,0.37,0.24,0.12
429300.0,0.24,0.18,0.12
429400.0,0.06,0.12,0.12
429500.0,0.18,0.12,0.12
429600.0,-0.06,0.12,0.12
429700.0,0.18,0.18,0.12
429800.0,0.12,0.18,0.12
429900.0,0.12,0.12,0.12
430000.0,0.18,0.18,0.0
430100.0,0.18,0.18,0.18
430200.0,0.12,0.18,0.12
430300.0,0.12,0.18,0.06
430400.0,0.18,0.18,0.06
430500.0,0.0,0.18,0.06
430600.0,0.18,0.12,0.06
430700.0,0.12,0.12,0.06
430800.0,0.24,0.18,0.12
430900.0,0.06,0.18,0.12
431000.0,0.24,0.18,0.12
431100.0,0.06,0.18,0.06
431200.0,0.31,0.18,0.06
431300.0,0.18,0.18,0.06
431400.0,0.06,0.18,0.12
431500.0,0.12,0.12,0.12
431600.0,-0.06,0.18,0.12
431700.0,0.18,0.12,0.06
431800.0,0.06,0.12,0.12
431900.0,0.12,0.18,0.12
432000.0,0.24,0.18,0.18
432100.0,0.24,0.18,0.0
432200.0,0.06,0.18,0.12
432300.0,0.06,0.18,0.12
432400.0,0.24,0.18,0.06
432500.0,0.0,0.18,0.12
432600.0,0.06,0.18,0.12
432700.0,0.31,0.18,-0.06
432800.0,0.06,0.18,0.12
432900.0,0.0,0.18,0.12
433000.0,0.55,0.18,0.12
433100.0,-0.12,0.24,0.18
433200.0,0.18,0.06,0.31
433300.0,-0.12,0.31,-0.06
433400.0,-0.43,0.37,0.0
433500.0,-0.06,0.18,0.06
433600.0,-0.12,0.24,0.0
433700.0,0.24,0.18,0.18
433800.0,0.0,0.12,0.0
433900.0,0.12,0.24,0.06
434000.0,0.06,0.18,0.06
434100.0,0.24,0.18,0.06
434200.0,0.0,0.18,0.06
434300.0,0.06,0.12,0.18
434400.0,0.18,0.18,0.06
434500.0,0.0,0.12,0.12
434600.0,0.24,0.18,0.06
434700.0,0.12,0.18,0.12
434800.0,0.18,0.18,0.06
434900.0,0.0,0.18,0.06
435000.0,0.24,0.12,0.06
435100.0,0.12,0.18,0.0
435200.0,0.24,0.12,0.06
435300.0,0.31,0.12,0.06
435400.0,0.0,0.18,0.12
435500.0,-0.24,0.24,0.12
435600.0,0.43,0.12,0.0
435700.0,0.85,-0.12,0.61
435800.0,0.43,0.0,0.55
435900.0,0.79,-0.06,0.24
436000.0,-0.18,0.18,-0.06
436100.0,-0.24,0.24,0.0
436200.0,0.06,0.18,0.12
436300.0,0.31,0.12,0.06
436400.0,0.12,0.18,0.18
436500.0,0.31,0.18,0.06
436600.0,0.0,0.12,0.12
436700.0,0.0,0.18,0.18
436800.0,0.24,0.18,0.0
436900.0,0.12,0.18,0.12
437000.0,0.06,0.18,0.12
437100.0,0.12,0.18,0.0
437200.0,0.06,0.18,0.06
437300.0,0.18,0.18,0.12
437400.0,0.31,0.12,0.0
437500.0,0.12,0.12,0.06
437600.0,0.18,0.18,0.12
437700.0,0.12,0.18,0.06
437800.0,0.24,0.12,0.12
437900.0,0.31,0.18,0.06
438000.0,0.24,0.18,0.12
438100.0,0.06,0.18,0.12
438200.0,0.18,0.18,0.06
438300.0,0.06,0.18,0.06
438400.0,0.06,0.12,0.06
438500.0,-0.06,0.12,0.06
438600.0,0.12,0.18,0.12
438700.0,0.18,0.18,0.12
438800.0,0.18,0.18,0.12
438900.0,0.06,0.18,0.12
439000.0,0.06,0.18,0.12
439100.0,0.18,0.18,0.0
439200.0,0.24,0.18,0.06
439300.0,0.24,0.24,0.06
439400.0,0.24,0.18,0.06
439500.0,0.0,0.18,0.0
439600.0,0.37,0.18,0.12
439700.0,0.0,0.12,0.06
439800.0,0.06,0.12,0.18
439900.0,0.12,0.12,0.12
440000.0,0.12,0.18,0.12
440100.0,0.06,0.12,0.18
440200.0,0.31,0.12,0.12
440300.0,0.06,0.12,0.06
440400.0,0.24,0.18,0.06
440500.0,0.24,0.18,0.12
440600.0,0.18,0.18,0.06
440700.0,0.06,0.18,0.12
440800.0,0.18,0.18,0.06
440900.0,0.18,0.18,0.12
441000.0,0.18,0.18,0.18
441100.0,0.12,0.18,0.0
441200.0,0.18,0.18,0.12
441300.0,0.0,0.18,0.12
441400.0,0.12,0.12,0.12
441500.0,0.24,0.12,0.06
441600.0,0.24,0.12,0.12
441700.0,0.06,0.12,0.06
441800.0,0.06,0.12,0.0
441900.0,-0.06,0.18,0.12
442000.0,-0.06,0.24,0.0
442100.0,0.0,0.18,0.06
442200.0,0.12,0.18,0.06
442300.0,0.12,0.18,0.06
442400.0,0.06,0.18,0.12
442500.0,0.18,0.24,0.06
442600.0,44.37,-9.46,1.4
442700.0,-39.92,0.92,-1.1
442800.0,3.85,1.1,0.06
442900.0,166.08,-26.92,11.41
443000.0,-124.08,-120.06,65.8
443100.0,-33.94,7.45,203.31
443200.0,33.2,79.16,310.55
443300.0,23.74,48.89,173.77
443400.0,-26.86,-27.71,-85.88
443500.0,-7.87,-34.12,-188.35
443600.0,-106.75,-97.29,-53.53
443700.0,-116.21,-93.57,128.54
443800.0,-72.81,9.22,251.59
443900.0,-70.25,115.23,-42.11
444000.0,-24.9,149.54,-38.51
444100.0,-17.09,30.82,18.25
444200.0,0.43,34.61,-3.05
444300.0,29.79,29.97,47.18
444400.0,11.11,-145.81,87.16
444500.0,50.29,83.86,11.17
444600.0,-59.88,-31.74,-27.71
444700.0,-47.91,-3.11,-41.26
444800.0,-34.97,17.4,-12.27
444900.0,-76.42,-125.49,-28.99
445000.0,1.04,3.78,-14.95
445100.0,6.77,-40.47,-29.6
445200.0,96.37,41.99,8.54
445300.0,74.22,28.5,-154.97
445400.0,-14.34,-79.83,-111.69
445500.0,-10.25,-35.89,46.45
445600.0,31.92,-11.9,-7.57
445700.0,34.79,40.1,-8.85
445800.0,41.63,25.7,-15.01
445900.0,-27.34,-13.0,0.98
446000.0,-80.08,8.91,28.2
446100.0,29.97,70.92,33.69
446200.0,105.47,77.27,197.33
446300.0,108.95,-54.32,16.85
446400.0,74.71,73.55,241.27
446500.0,230.59,4.21,79.1
446600.0,48.83,-60.55,64.15
446700.0,-97.23,-145.26,-49.62
446800.0,340.27,223.94,-106.93
446900.0,158.02,110.47,116.64
447000.0,771.24,62.44,35.52
447100.0,112.12,-33.81,10.99
447200.0,88.38,154.17,33.08
447300.0,-60.97,-94.3,-77.88
447400.0,14.04,-54.93,-62.38
447500.0,-116.52,-35.16,21.36
447600.0,-7.02,33.02,-0.49
447700.0,3.3,18.37,19.84
447800.0,-21.85,0.24,8.79
447900.0,-38.21,-3.36,3.54
448000.0,-120.97,-40.22,-89.23
448100.0,-60.85,16.78,60.73
448200.0,-56.58,-12.94,-67.14
448300.0,-21.55,-40.59,46.2
448400.0,-12.33,-11.9,14.71
448500.0,-35.28,10.62,-56.27
448600.0,-100.28,119.75,-153.38
448700.0,-81.3,3.72,33.45
448800.0,47.49,-11.11,-33.51
448900.0,-9.28,-46.51,-155.64
449000.0,71.04,-10.86,-180.05
449100.0,24.11,-25.88,-118.47
449200.0,-63.17,-102.29,-85.57
449300.0,37.78,88.62,6.23
449400.0,-141.6,-80.32,-24.96
449500.0,108.7,19.04,-62.26
449600.0,-49.87,-63.48,-58.47
449700.0,-127.26,14.04,-12.76
449800.0,-14.77,7.08,47.12
449900.0,33.08,10.38,-2.14
450000.0,44.74,38.21,-0.49
450100.0,-46.33,-19.35,3.05
450200.0,24.66,18.92,-3.72
450300.0,-4.64,-2.44,-1.95
450400.0,3.36,-6.9,2.44
450500.0,10.44,5.62,0.12
450600.0,-1.83,-0.61,0.31
450700.0,1.28,0.98,0.37
450800.0,0.98,-0.24,1.53
450900.0,2.2,1.28,0.37
451000.0,1.22,0.61,-0.12
451100.0,-1.71,0.98,1.89
451200.0,1.16,0.85,1.71
451300.0,0.79,0.0,0.18
451400.0,0.43,1.34,0.06
451500.0,-0.55,-0.37,0.49
451600.0,2.14,0.18,1.1
451700.0,-0.06,1.53,0.85
451800.0,0.79,0.61,0.49
451900.0,0.85,0.18,0.24
452000.0,3.6,0.55,0.43
452100.0,1.4,0.55,0.37
452200.0,0.98,0.73,0.12
452300.0,0.43,0.79,0.12
452400.0,0.85,0.37,0.12
452500.0,1.04,0.67,0.12
452600.0,0.73,0.43,0.12
452700.0,0.61,0.37,0.12
452800.0,-4.15,0.0,2.87
452900.0,2.81,2.93,0.0
453000.0,-0.79,-0.31,0.85
453100.0,2.01,1.71,0.12
453200.0,0.24,0.06,1.1
453300.0,2.2,0.85,0.18
453400.0,0.49,0.43,0.37
453500.0,0.55,0.79,0.12
453600.0,0.06,0.06,0.06
453700.0,-0.43,0.61,0.79
453800.0,0.12,0.43,1.34
453900.0,1.59,0.61,0.18
454000.0,1.1,1.04,0.12
454100.0,0.43,-0.06,0.92
454200.0,1.28,1.4,0.06
454300.0,0.49,-0.06,0.85
454400.0,1.46,0.98,0.18
454500.0,0.24,0.61,0.12
454600.0,1.71,0.0,0.31
454700.0,0.92,0.37,0.06
454800.0,0.18,1.04,0.06
454900.0,-0.37,-0.06,0.31
455000.0,-0.06,0.98,0.49
455100.0,0.98,1.34,0.18
455200.0,3.36,3.78,0.18
455300.0,-51.45,-19.04,-18.07
455400.0,7.75,-5.98,1.77
455500.0,18.86,13.49,0.85
455600.0,-12.45,-8.61,-0.24
455700.0,6.1,4.94,0.31
455800.0,-4.27,-2.87,0.18
455900.0,3.23,2.62,0.31
456000.0,-1.83,-1.28,0.18
456100.0,0.85,0.85,0.18
456200.0,-0.98,0.06,0.31
456300.0,-0.18,0.06,0.18
456400.0,0.24,0.43,0.12
456500.0,0.12,0.18,0.06
456600.0,0.18,0.24,0.12
456700.0,0.06,-0.06,0.18
456800.0,0.37,0.73,0.0
456900.0,-0.79,-0.43,0.12
457000.0,0.31,0.06,0.18
457100.0,0.31,0.37,0.12
457200.0,0.24,0.24,0.12
457300.0,-0.43,0.18,-0.06
457400.0,-0.37,0.06,0.12
457500.0,2.32,1.83,0.31
457600.0,-1.1,-0.92,-0.06
457700.0,1.04,0.92,0.18
457800.0,0.92,0.73,0.24
457900.0,0.12,-0.12,-0.06
458000.0,0.43,0.37,0.18
458100.0,0.43,0.31,0.18
458200.0,0.06,0.0,0.0
458300.0,-0.06,0.06,0.18
458400.0,0.92,0.85,0.12
458500.0,0.18,0.18,0.0
458600.0,0.0,0.18,0.31
458700.0,1.22,1.22,0.49
458800.0,-2.32,0.12,2.32
458900.0,1.46,1.53,0.92
459000.0,-0.61,-0.43,0.12
459100.0,0.98,0.85,0.31
459200.0,-0.37,-0.12,0.24
459300.0,0.31,0.55,0.18
459400.0,-0.06,0.18,0.31
459500.0,0.31,0.49,0.18
459600.0,0.31,0.37,0.12
459700.0,0.55,0.67,0.31
459800.0,0.37,0.43,0.24
459900.0,0.18,0.12,0.12
460000.0,0.55,0.43,0.18
460100.0,-0.18,-0.18,0.31
460200.0,-0.18,0.06,0.18
460300.0,-0.37,0.06,0.31
460400.0,-0.61,-0.18,0.06
460500.0,-0.98,-0.55,0.12
460600.0,1.89,1.4,0.18
460700.0,-0.73,-0.67,0.18
460800.0,0.61,0.98,0.31
460900.0,-0.49,-0.24,0.43
461000.0,-0.37,-0.18,0.18
461100.0,1.28,1.1,0.43
461200.0,-0.98,-0.61,0.43
461300.0,0.43,0.12,0.24
461400.0,0.98,1.16,0.06
461500.0,-0.55,-0.49,0.12
461600.0,0.92,0.92,0.37
461700.0,-0.92,-0.43,0.61
461800.0,0.92,0.67,0.24
461900.0,0.49,0.12,0.31
462000.0,0.12,0.18,0.12
462100.0,0.98,0.73,0.24
462200.0,-0.06,0.06,0.12
462300.0,0.31,0.37,0.12
462400.0,0.37,0.37,0.18
462500.0,0.0,-0.06,0.06
462600.0,0.49,0.12,0.12
462700.0,-0.18,0.12,0.18
462800.0,0.37,0.12,0.12
462900.0,0.49,0.24,0.24
463000.0,0.61,0.12,0.12
463100.0,0.85,0.18,0.18
463200.0,0.73,0.49,0.24
463300.0,0.12,-0.55,0.06
463400.0,1.16,0.79,0.18
463500.0,-0.12,0.06,0.18
463600.0,0.67,0.49,0.06
463700.0,-0.79,-0.24,0.18
463800.0,0.24,1.28,1.16
463900.0,0.43,-0.31,0.12
464000.0,1.16,0.73,0.24
464100.0,-0.31,-0.06,0.31
464200.0,0.73,0.43,0.24
464300.0,0.18,-0.06,0.37
464400.0,1.1,0.92,0.24
464500.0,0.18,0.49,0.06
464600.0,0.55,0.18,0.31
464700.0,-0.79,-0.43,0.12
464800.0,1.4,0.79,0.18
464900.0,-0.67,0.12,0.37
465000.0,0.85,0.18,0.24
465100.0,0.31,0.37,0.24
465200.0,0.12,0.12,0.31
465300.0,0.06,0.06,0.18
465400.0,0.37,0.37,0.37
465500.0,0.37,0.73,0.37
465600.0,0.55,0.43,0.12
465700.0,-0.37,-0.31,0.0
465800.0,1.28,0.85,0.37
465900.0,-0.43,-0.92,0.18
466000.0,0.98,0.31,0.18
466100.0,0.18,0.18,0.24
466200.0,1.46,1.1,0.06
466300.0,-0.98,-0.67,0.06
466400.0,0.61,0.61,0.18
466500.0,-0.06,0.12,0.06
466600.0,-0.73,-0.18,0.06
466700.0,0.24,0.31,0.18
466800.0,0.61,0.37,0.12
466900.0,0.31,-0.06,0.18
467000.0,0.37,0.43,0.24
467100.0,0.0,0.06,0.12
467200.0,-0.49,-0.18,0.24
467300.0,0.18,0.67,0.49
467400.0,-0.79,-0.43,0.31
467500.0,0.61,0.49,0.24
467600.0,0.61,0.43,0.24
467700.0,0.12,0.18,0.18
467800.0,-0.61,0.06,0.43
467900.0,0.79,0.49,0.18
468000.0,-0.49,0.0,0.18
468100.0,1.34,0.67,0.12
468200.0,0.0,-0.12,0.12
468300.0,0.92,0.92,0.31
468400.0,0.55,0.31,0.18
468500.0,-0.61,-0.24,0.06
468600.0,0.79,0.98,0.37
468700.0,-0.18,0.0,0.24
468800.0,-0.37,-0.43,0.18
468900.0,1.28,0.92,0.31
469000.0,-1.04,-0.43,0.12
469100.0,0.37,0.06,0.24
469200.0,1.16,0.73,0.31
469300.0,0.24,0.18,0.12
469400.0,-0.18,-0.12,0.18
469500.0,0.0,0.43,0.06
469600.0,-0.67,-0.06,0.06
469700.0,-0.49,0.06,0.18
469800.0,0.73,0.43,0.12
469900.0,0.79,0.18,0.24
470000.0,0.85,0.18,0.24
470100.0,0.37,0.0,0.24
470200.0,0.67,0.55,0.18
470300.0,-0.37,-0.43,0.31
470400.0,1.04,0.73,0.37
470500.0,-0.24,-0.24,0.24
470600.0,0.55,0.43,0.18
470700.0,0.12,0.18,0.24
470800.0,-0.06,0.06,0.18
470900.0,-0.24,0.18,0.18
471000.0,0.06,0.18,0.24
471100.0,-0.24,-0.06,0.18
471200.0,0.85,0.67,0.24
471300.0,-0.37,-0.24,0.18
471400.0,0.49,0.37,0.24
471500.0,0.12,0.24,0.24
471600.0,0.55,0.0,0.06
471700.0,-0.31,0.06,0.18
471800.0,0.55,0.55,0.37
471900.0,1.34,0.67,0.12
472000.0,-0.67,-0.18,0.12
472100.0,0.61,0.43,0.18
472200.0,-0.06,0.06,0.18
472300.0,0.06,0.18,0.12
472400.0,-0.67,-0.49,0.18
472500.0,0.31,0.24,0.18
472600.0,0.55,0.61,0.0
472700.0,0.0,0.0,0.18
472800.0,-0.37,0.06,0.18
472900.0,-0.06,-0.18,0.18
473000.0,-0.43,-0.18,0.18
473100.0,0.98,0.49,0.12
473200.0,-0.06,0.06,0.12
473300.0,0.24,0.31,0.24
473400.0,-0.31,0.18,0.0
473500.0,0.43,-0.06,0.24
473600.0,-0.43,-0.12,0.12
473700.0,0.55,0.67,0.12
473800.0,0.67,0.55,0.12
473900.0,-0.24,0.0,0.06
474000.0,0.12,0.24,0.12
474100.0,0.24,0.37,0.12
474200.0,-0.06,0.12,0.12
474300.0,0.31,0.24,0.18
474400.0,-1.16,-0.67,0.12
474500.0,0.06,0.49,0.12
474600.0,0.18,0.31,0.12
474700.0,-0.37,-0.12,0.18
474800.0,0.79,0.43,0.18
474900.0,0.49,0.43,0.18
475000.0,0.43,0.37,0.12
475100.0,0.37,0.37,0.18
475200.0,-0.18,-0.06,0.06
475300.0,0.18,0.49,0.12
475400.0,0.12,0.18,0.18
475500.0,0.06,0.18,0.12
475600.0,0.24,0.18,0.18
475700.0,0.0,0.31,0.18
475800.0,0.49,0.37,0.18
475900.0,-0.31,-0.12,0.18
476000.0,-1.04,-0.55,0.31
476100.0,0.06,0.18,0.24
476200.0,-0.43,-0.24,0.31
476300.0,0.55,0.49,0.24
476400.0,-0.43,-0.43,0.06
476500.0,0.06,0.31,0.18
476600.0,0.0,-0.18,0.18
476700.0,0.06,-0.12,0.18
476800.0,0.37,0.24,0.18
476900.0,0.98,0.73,0.12
477000.0,0.24,0.37,0.0
477100.0,0.55,0.43,0.24
477200.0,0.49,0.12,0.12
477300.0,0.0,0.12,0.12
477400.0,0.37,0.18,0.18
477500.0,0.67,0.37,0.12
477600.0,0.49,0.24,0.18
477700.0,0.06,-0.06,0.18
477800.0,1.04,0.55,0.18
477900.0,-0.43,-0.12,0.12
478000.0,0.06,0.31,0.12
478100.0,0.49,0.31,0.18
478200.0,0.18,0.06,0.18
478300.0,-0.37,-0.12,0.12
478400.0,0.24,0.31,0.12
478500.0,0.37,0.24,0.12
478600.0,0.06,0.18,0.12
478700.0,0.0,0.18,0.12
478800.0,0.43,0.31,0.12
478900.0,0.31,0.37,0.18
479000.0,0.24,0.18,0.06
479100.0,0.73,0.43,0.18
479200.0,0.06,0.24,0.18
479300.0,0.24,0.31,0.12
479400.0,-0.06,0.18,0.12
479500.0,0.0,0.18,0.12
479600.0,-0.31,-0.12,0.06
479700.0,-0.43,-0.12,0.18
479800.0,-0.49,0.0,0.12
479900.0,0.12,0.43,0.0
480000.0,-0.37,0.12,0.18
480100.0,0.12,0.43,0.0
480200.0,-1.4,-0.73,0.06
480300.0,-0.55,-0.31,0.06
480400.0,-0.06,0.18,0.24
480500.0,0.06,0.24,0.06
480600.0,0.49,0.73,0.24
480700.0,-0.92,-0.24,0.0
480800.0,0.06,-0.12,0.12
480900.0,0.61,0.43,0.24
481000.0,1.46,0.73,0.0
481100.0,-0.92,0.0,0.12
481200.0,0.49,0.12,0.06
481300.0,-0.37,0.06,0.0
481400.0,-0.12,-0.12,0.24
481500.0,0.24,0.37,0.0
481600.0,0.98,0.37,0.18
481700.0,-0.43,0.06,0.0
481800.0,0.31,0.18,0.12
481900.0,0.06,0.12,0.12
482000.0,0.43,0.31,0.18
482100.0,0.43,0.24,0.12
482200.0,-0.12,-0.12,0.18
482300.0,-0.37,-0.12,0.06
482400.0,0.61,0.61,0.18
482500.0,0.06,0.31,0.18
482600.0,0.79,0.37,0.18
482700.0,-0.18,-0.12,0.12
482800.0,-0.18,0.0,0.12
482900.0,0.37,0.43,0.12
483000.0,1.16,0.67,0.31
483100.0,-0.06,0.24,-0.12
483200.0,-0.98,-0.49,0.18
483300.0,-0.12,0.43,0.12
483400.0,0.18,0.18,0.0
483500.0,0.55,0.61,0.24
483600.0,0.85,0.37,0.12
483700.0,-0.06,0.0,0.06
483800.0,0.49,0.37,0.12
483900.0,-0.37,-0.06,0.12
484000.0,0.24,-0.06,0.24
484100.0,0.55,0.43,0.12
484200.0,0.18,0.24,0.06
484300.0,-0.12,0.24,0.06
484400.0,0.98,0.49,0.18
484500.0,-0.43,0.06,0.18
484600.0,0.43,0.31,0.0
484700.0,-0.43,0.0,0.24
484800.0,0.55,0.55,0.12
484900.0,-0.61,-0.98,0.43
485000.0,-0.06,0.18,0.31
485100.0,0.37,0.12,0.18
485200.0,-0.67,0.06,0.67
485300.0,0.73,0.49,0.37
485400.0,0.31,-0.12,0.24
485500.0,-0.61,-0.12,0.0
485600.0,0.79,0.43,0.31
485700.0,0.61,0.55,0.06
485800.0,-0.06,0.06,0.31
485900.0,0.73,0.18,0.06
486000.0,-0.18,-0.12,0.24
486100.0,0.24,0.37,0.31
486200.0,0.67,0.43,0.06
486300.0,-0.73,-0.43,0.0
486400.0,-0.37,0.0,0.37
486500.0,1.46,1.04,-0.06
486600.0,-0.61,-0.24,0.18
486700.0,-0.31,-0.06,0.24
486800.0,0.67,0.67,0.12
486900.0,0.06,0.31,0.24
487000.0,-1.22,-0.49,-0.18
487100.0,0.85,0.79,0.67
487200.0,0.92,0.18,-0.18
487300.0,-0.12,-0.12,0.18
487400.0,1.04,0.79,0.49
487500.0,0.67,0.43,0.12
487600.0,-0.37,-0.06,0.06
487700.0,-0.73,-0.18,0.0
487800.0,0.31,0.61,0.31
487900.0,0.24,0.37,0.06
488000.0,-0.98,-0.31,0.24
488100.0,0.43,0.49,0.24
488200.0,-0.55,-0.12,0.24
488300.0,-0.73,-0.12,0.37
488400.0,2.01,1.04,0.37
488500.0,-0.67,-0.31,0.12
488600.0,-0.37,0.0,0.31
488700.0,0.98,0.61,0.18
488800.0,0.55,0.37,0.06
488900.0,-1.22,-0.85,0.18
489000.0,1.1,0.49,0.18
489100.0,0.31,0.37,0.06
489200.0,0.06,0.12,0.24
489300.0,0.12,-0.06,0.12
489400.0,-0.31,-0.12,0.06
489500.0,-0.24,-0.12,0.12
489600.0,0.73,0.43,0.18
489700.0,0.12,0.12,0.18
489800.0,0.12,0.12,0.12
489900.0,0.24,0.49,0.12
490000.0,0.37,0.12,0.18
490100.0,-0.37,-0.49,0.06
490200.0,-0.61,0.0,0.12
490300.0,0.92,0.73,0.18
490400.0,0.12,0.0,0.12
490500.0,-0.37,0.0,0.12
490600.0,0.49,0.49,0.12
490700.0,0.24,0.24,0.18
490800.0,0.12,0.18,0.18
490900.0,0.37,0.18,0.06
491000.0,-0.12,-0.12,0.18
491100.0,0.61,0.43,0.18
491200.0,0.98,0.67,0.18
491300.0,-0.18,-0.06,0.12
491400.0,-0.06,-0.12,0.06
491500.0,0.31,0.24,0.12
491600.0,0.67,0.37,0.18
491700.0,-0.18,-0.06,0.12
491800.0,0.24,0.55,0.12
491900.0,-0.61,-0.24,0.12
492000.0,-0.24,-0.24,0.12
492100.0,1.22,0.61,0.24
492200.0,0.61,0.43,0.18
492300.0,-0.06,-0.18,0.12
492400.0,-0.06,-0.06,0.18
492500.0,1.22,0.43,0.24
492600.0,0.67,0.37,0.12
492700.0,-0.79,-0.24,0.24
492800.0,-0.55,-0.37,0.31
492900.0,-1.65,-0.31,0.31
493000.0,0.55,0.55,0.37
493100.0,0.61,0.24,0.18
493200.0,-0.24,-0.06,0.24
493300.0,0.61,0.31,0.24
493400.0,0.0,0.0,0.12
493500.0,-0.24,0.06,0.12
493600.0,0.18,0.12,0.24
493700.0,0.43,0.24,0.18
493800.0,0.49,0.49,0.24
493900.0,0.31,0.18,0.18
494000.0,-0.61,-0.49,0.18
494100.0,0.73,0.98,0.24
494200.0,2.14,1.16,0.18
494300.0,-0.79,-0.49,0.06
494400.0,-0.67,-0.31,0.12
494500.0,1.04,0.73,0.12
494600.0,0.73,0.31,0.24
494700.0,0.18,0.06,0.18
494800.0,0.49,-0.06,0.24
494900.0,-0.24,-0.31,0.31
495000.0,0.73,0.61,0.12
495100.0,1.28,0.85,0.18
495200.0,-0.61,-0.12,0.12
495300.0,0.49,0.24,0.12
495400.0,-0.85,-0.31,0.18
495500.0,0.61,0.43,0.12
495600.0,0.31,0.37,0.18
495700.0,0.31,0.49,0.06
495800.0,-0.61,-0.24,0.12
495900.0,-0.43,0.06,0.24
496000.0,-0.12,0.31,-0.06
496100.0,0.12,0.18,0.24
496200.0,0.85,0.67,0.12
496300.0,-0.12,0.12,0.06
496400.0,-0.24,-0.18,0.24
496500.0,-0.31,-0.24,0.18
496600.0,-0.67,-0.61,0.18
496700.0,2.08,1.04,0.24
496800.0,-0.92,-0.37,0.12
496900.0,-0.43,-0.06,0.12
497000.0,-0.06,-0.06,0.0
497100.0,0.0,0.18,0.12
497200.0,0.67,0.31,0.31
497300.0,0.49,0.12,0.06
497400.0,-0.61,-0.31,0.24
497500.0,0.43,0.37,0.18
497600.0,1.46,0.61,0.12
497700.0,-0.61,-0.31,0.37
497800.0,0.61,0.12,0.24
497900.0,0.06,0.06,0.0
498000.0,-0.12,0.37,0.18
498100.0,0.67,0.37,0.12
498200.0,-0.67,-0.61,0.06
498300.0,-0.49,0.12,0.12
498400.0,0.0,0.18,0.06
498500.0,0.31,0.24,0.18
498600.0,0.49,0.18,0.12
498700.0,0.24,0.18,0.18
498800.0,0.85,0.31,0.24
498900.0,-0.18,0.0,0.0
499000.0,0.06,0.0,0.24
499100.0,0.92,0.43,0.06
499200.0,0.06,0.12,0.18
499300.0,0.12,0.06,0.18
499400.0,0.79,0.06,0.24
499500.0,0.92,0.18,0.18
499600.0,0.0,0.0,0.24
499700.0,0.49,0.37,0.24
499800.0,0.43,0.31,0.06
499900.0,-0.92,-0.37,0.18
500000.0,0.79,0.61,0.18
500100.0,0.18,0.0,0.06
500200.0,-0.37,0.12,0.55
500300.0,1.28,0.61,0.0
500400.0,-1.16,-0.49,0.18
500500.0,0.43,0.49,0.43
500600.0,0.55,0.18,0.85
500700.0,-0.37,-0.12,0.12
500800.0,0.67,0.43,0.24
500900.0,0.55,0.37,0.18
501000.0,-0.18,-0.12,0.24
501100.0,-0.37,-0.12,0.12
501200.0,-0.24,0.12,0.12
501300.0,0.79,0.31,0.18
501400.0,0.0,0.06,0.12
501500.0,0.24,0.12,0.24
501600.0,0.06,0.31,0.06
501700.0,0.24,0.43,0.12
501800.0,0.92,0.43,0.12
501900.0,0.18,0.12,0.06
502000.0,-0.55,-0.12,0.31
502100.0,0.92,0.49,0.06
502200.0,-0.37,-0.18,0.06
502300.0,-0.24,0.0,0.37
502400.0,1.04,0.43,0.12
502500.0,-1.22,-0.55,0.12
502600.0,-0.49,0.24,0.24
502700.0,0.55,0.18,-0.18
502800.0,-1.4,-0.31,0.24
502900.0,1.1,0.61,0.18
503000.0,-0.79,-0.61,-0.06
503100.0,-0.12,0.31,0.24
503200.0,1.22,0.67,0.12
503300.0,-0.06,0.0,0.06
503400.0,-0.79,-0.06,0.24
503500.0,0.61,0.37,0.12
503600.0,0.43,0.37,0.18
503700.0,0.12,0.18,0.12
503800.0,-0.24,-0.06,0.0
503900.0,-0.61,-0.24,0.18
504000.0,-0.24,0.18,0.24
504100.0,0.85,0.55,0.18
504200.0,-0.49,-0.37,0.06
504300.0,0.31,0.37,0.18
504400.0,0.67,0.61,0.0
504500.0,-0.37,0.0,0.06
504600.0,0.31,0.37,0.24
504700.0,0.0,0.06,0.06
504800.0,-0.12,-0.06,0.12
504900.0,0.31,0.24,0.18
505000.0,0.18,0.37,0.0
505100.0,-0.61,-0.49,0.0
505200.0,-0.31,0.06,0.12
505300.0,0.67,0.31,0.12
505400.0,0.0,0.12,0.18
505500.0,-0.31,0.0,0.18
505600.0,0.18,0.31,0.0
505700.0,-0.37,-0.12,0.24
505800.0,0.49,0.37,0.12
505900.0,-0.12,0.18,0.18
506000.0,0.37,0.12,0.12
506100.0,-0.18,-0.06,0.12
506200.0,0.31,0.43,0.24
506300.0,0.49,0.24,0.18
506400.0,-0.85,-0.37,0.37
506500.0,-1.1,-0.31,0.73
506600.0,1.4,0.79,0.18
506700.0,0.0,0.06,0.12
506800.0,-0.24,0.12,0.12
506900.0,0.67,0.37,0.06
507000.0,-0.18,0.06,0.12
507100.0,-0.06,0.0,0.18
507200.0,0.06,0.18,0.06
507300.0,-0.37,0.06,0.12
507400.0,0.18,0.31,0.12
507500.0,-0.24,-0.18,0.06
507600.0,0.49,0.43,0.18
507700.0,0.61,0.49,0.18
507800.0,-0.73,-0.24,0.0
507900.0,-0.79,-0.12,0.18
508000.0,-0.55,0.0,0.06
508100.0,0.98,0.31,0.24
508200.0,-0.06,0.12,0.18
508300.0,0.24,0.12,0.12
508400.0,1.4,0.61,0.24
508500.0,0.43,0.49,0.12
508600.0,0.18,0.24,0.18
508700.0,-0.06,0.24,0.12
508800.0,-0.31,-0.12,0.12
508900.0,0.55,0.43,0.18
509000.0,0.49,0.67,0.12
509100.0,-0.61,-0.06,0.12
509200.0,-0.37,0.0,0.06
509300.0,-0.43,-0.12,0.12
509400.0,0.61,0.49,0.12
509500.0,0.85,0.61,0.12
509600.0,0.55,0.37,0.18
509700.0,0.37,0.37,0.12
509800.0,0.43,0.12,0.18
509900.0,0.31,0.37,0.18
510000.0,0.18,0.06,0.18
510100.0,0.43,0.18,0.12
510200.0,-0.31,-0.24,0.12
510300.0,-15.63,-0.24,0.12
510400.0,0.49,0.12,0.12
510500.0,0.85,0.37,0.24
510600.0,-0.61,-0.18,0.18
510700.0,0.43,-0.06,0.06
510800.0,0.43,0.43,0.18
510900.0,0.49,0.61,0.12
511000.0,0.37,0.31,0.06
511100.0,-0.67,-0.24,0.12
511200.0,0.61,0.31,0.12
511300.0,0.18,0.0,0.12
511400.0,0.24,0.24,0.18
511500.0,0.43,0.43,0.12
511600.0,0.49,0.37,0.12
511700.0,0.12,0.18,0.18
511800.0,0.0,0.06,0.12
511900.0,0.24,0.24,0.18
512000.0,0.12,0.12,0.12
512100.0,0.0,-0.06,0.12
512200.0,-0.12,-0.06,0.12
512300.0,0.0,0.12,0.12
512400.0,0.43,0.43,0.12
512500.0,0.24,0.24,0.12
512600.0,0.61,0.37,0.24
512700.0,0.31,0.12,0.12
512800.0,-0.31,0.06,0.12
512900.0,-0.43,-0.24,0.12
513000.0,0.67,0.43,0.12
513100.0,0.37,0.24,0.24
513200.0,0.61,0.37,0.18
513300.0,0.18,0.12,0.12
513400.0,-0.06,-0.18,0.24
513500.0,0.31,0.12,0.12
513600.0,0.06,0.12,0.12
513700.0,0.49,0.43,0.18
513800.0,0.12,0.24,0.12
513900.0,0.0,0.06,0.18
514000.0,-0.37,0.0,0.06
514100.0,0.31,0.12,0.18
514200.0,0.31,0.18,0.18
514300.0,0.37,0.24,0.18
514400.0,0.12,0.12,0.12
514500.0,0.0,0.06,0.12
514600.0,0.43,0.31,0.18
514700.0,0.43,0.24,0.18
514800.0,-0.18,-0.06,0.12
514900.0,0.18,0.18,0.24
515000.0,0.43,0.31,0.12
515100.0,0.18,0.12,0.12
515200.0,0.18,0.18,0.12
515300.0,0.31,0.18,0.12
515400.0,0.12,0.18,0.12
515500.0,0.06,0.12,0.12
515600.0,0.37,0.18,0.18
515700.0,0.24,0.18,0.18
515800.0,0.18,0.24,0.18
515900.0,-0.06,0.06,0.18
516000.0,-0.18,0.06,0.18
516100.0,0.0,0.18,0.18
516200.0,0.06,0.06,0.24
516300.0,0.0,0.06,0.24
516400.0,0.37,0.24,0.18
516500.0,-0.18,-0.12,0.18
516600.0,0.85,0.49,0.31
516700.0,0.67,0.37,0.12
516800.0,0.12,-0.06,0.31
516900.0,0.55,0.37,0.31
517000.0,-0.18,-0.12,0.24
517100.0,-1.04,-0.49,0.24
517200.0,0.49,0.31,0.31
517300.0,0.31,0.24,0.12
517400.0,-0.06,-0.12,0.18
517500.0,1.1,0.61,0.31
517600.0,0.49,0.43,0.12
517700.0,-0.85,-0.31,0.18
517800.0,0.43,0.43,0.12
517900.0,0.12,0.18,0.12
518000.0,0.12,0.18,0.31
518100.0,1.28,0.79,0.12
518200.0,0.31,0.18,0.06
518300.0,-1.22,-0.43,0.18
518400.0,0.92,0.43,0.18
518500.0,-0.49,-0.31,0.0
518600.0,-0.98,-0.31,0.43
518700.0,0.98,0.37,0.0
518800.0,-0.92,-0.24,0.06
518900.0,0.12,0.18,0.24
519000.0,1.53,0.67,0.0
519100.0,-0.12,-0.06,0.24
519200.0,0.43,0.31,0.18
519300.0,0.43,0.24,0.06
519400.0,-103.21,-94.73,-18.19
519500.0,-2.75,-27.4,33.45
519600.0,6.1,-23.32,35.83
519700.0,28.99,-2.2,-76.9
519800.0,43.64,63.66,-12.08
519900.0,41.56,65.25,44.74
520000.0,10.13,-5.98,13.55
520100.0,20.51,-21.55,15.81
520200.0,30.4,12.21,25.27
520300.0,17.88,46.75,23.74
520400.0,20.69,-1.77,29.54
520500.0,63.42,9.22,-41.44
520600.0,131.59,48.34,8.06
520700.0,92.16,4.21,96.68
520800.0,90.33,81.6,73.3
520900.0,39.37,13.31,112.49
521000.0,-16.42,-29.85,125.61
521100.0,26.06,-26.12,42.97
521200.0,22.83,22.58,65.92
521300.0,5.86,-55.24,74.95
521400.0,-93.69,57.86,-7.32
521500.0,-31.86,-105.04,87.4
521600.0,-61.52,87.4,-166.32
521700.0,-9.09,93.81,-20.02
521800.0,-41.99,-17.09,-189.51
521900.0,6.96,155.21,-86.91
522000.0,2.93,94.42,-57.13
522100.0,-0.06,-4.76,-31.86
522200.0,9.83,26.79,15.93
522300.0,21.36,17.4,-5.62
522400.0,-34.36,-57.25,34.18
522500.0,13.43,-39.67,6.04
522600.0,74.95,9.52,-13.06
522700.0,26.0,32.04,18.01
522800.0,22.95,15.2,25.21
522900.0,73.55,21.12,28.69
523000.0,-78.43,-13.37,50.23
523100.0,28.5,55.42,40.22
523200.0,134.28,244.02,89.05
523300.0,3.97,45.96,-13.98
523400.0,19.47,38.57,20.2
523500.0,-0.18,0.0,18.19
523600.0,0.12,0.06,0.18
523700.0,0.12,0.12,0.18
523800.0,0.18,0.18,0.12
523900.0,0.12,0.12,0.12
524000.0,0.18,0.12,0.12
524100.0,0.18,0.12,0.12
524200.0,0.24,0.43,0.12
524300.0,0.12,-0.06,0.18
524400.0,0.18,0.37,0.18
524500.0,0.18,0.06,0.12
524600.0,0.18,0.12,0.12
524700.0,0.18,0.24,0.18
524800.0,0.18,0.06,0.12
524900.0,0.18,0.12,0.18
525000.0,0.18,0.24,0.12
525100.0,0.18,0.18,0.12
525200.0,0.18,0.12,0.12
525300.0,0.18,0.37,0.12
525400.0,0.06,0.0,0.12
525500.0,0.12,0.06,0.18
525600.0,0.18,0.37,0.12
525700.0,0.12,0.0,0.18
525800.0,0.18,0.18,0.12
525900.0,0.12,0.18,0.12
526000.0,0.12,0.06,0.12
526100.0,0.18,0.24,0.12
526200.0,0.12,0.12,0.18
526300.0,0.12,0.12,0.12
526400.0,0.18,0.18,0.12
526500.0,0.12,0.12,0.12
526600.0,0.12,0.18,0.18
526700.0,0.18,0.18,0.18
526800.0,0.12,0.12,0.12
526900.0,0.12,0.12,0.12
527000.0,0.18,0.18,0.18
527100.0,0.12,0.12,0.12
527200.0,0.18,0.18,0.12
527300.0,0.12,0.18,0.18
527400.0,0.12,0.12,0.12
527500.0,0.12,0.18,0.12
527600.0,0.18,0.18,0.18
527700.0,0.18,0.06,0.12
527800.0,0.18,0.18,0.12
527900.0,0.12,0.18,0.12
528000.0,0.12,0.18,0.18
528100.0,0.18,0.18,0.18
528200.0,0.18,0.12,0.12
528300.0,0.18,0.12,0.12
528400.0,0.18,0.18,0.18
528500.0,0.12,0.18,0.12
528600.0,0.18,0.12,0.12
528700.0,0.18,0.12,0.18
528800.0,0.18,0.18,0.12
528900.0,0.18,0.12,0.18
529000.0,0.18,0.12,0.12
529100.0,0.12,0.18,0.18
529200.0,0.18,0.18,0.12
529300.0,0.12,0.12,0.18
529400.0,0.18,0.18,0.12
529500.0,0.12,0.12,0.12
529600.0,0.18,0.18,0.18
529700.0,0.18,0.12,0.12
529800.0,0.18,0.18,0.18
529900.0,0.18,0.12,0.18
530000.0,0.12,0.18,0.18
530100.0,0.18,0.12,0.12
530200.0,0.12,0.18,0.12
530300.0,0.18,0.18,0.12
530400.0,0.12,0.12,0.12
530500.0,0.12,0.12,0.12
530600.0,0.18,0.18,0.12
530700.0,0.18,0.12,0.12
530800.0,0.12,0.18,0.12
530900.0,0.12,0.12,0.18
531000.0,0.12,0.18,0.12
531100.0,0.18,0.18,0.12
531200.0,0.18,0.12,0.12
531300.0,0.18,0.12,0.12
531400.0,0.18,0.12,0.12
531500.0,0.12,0.18,0.12
531600.0,0.18,0.18,0.12
531700.0,0.18,0.12,0.12
531800.0,0.18,0.12,0.12
531900.0,0.18,0.12,0.18
532000.0,0.18,0.18,0.18
532100.0,0.18,0.18,0.12
532200.0,0.12,0.12,0.12
532300.0,0.12,0.12,0.12
532400.0,0.12,0.18,0.12
532500.0,0.18,0.18,0.18
532600.0,0.12,0.18,0.12
532700.0,1.1,0.37,13.49
532800.0,36.68,23.38,61.04
532900.0,19.71,49.99,1.1
533000.0,-23.56,9.46,11.78
533100.0,-13.67,-17.7,21.18
533200.0,-21.48,11.23,-28.81
533300.0,7.45,-64.7,-3.6
533400.0,0.31,-48.22,7.57
533500.0,0.06,0.12,-5.8
533600.0,-0.61,-0.61,20.08
533700.0,0.18,0.24,0.18
533800.0,0.06,0.0,0.12
533900.0,0.18,0.18,0.12
534000.0,0.18,0.24,0.18
534100.0,0.12,0.06,0.18
534200.0,0.18,0.18,0.18
534300.0,0.18,0.18,0.12
534400.0,0.18,0.31,0.18
534500.0,0.0,-0.06,1.04
534600.0,0.24,0.37,0.12
534700.0,0.06,0.0,0.37
534800.0,0.18,0.18,0.12
534900.0,0.18,0.24,0.79
535000.0,0.06,0.0,0.12
535100.0,0.18,0.24,0.18
535200.0,0.18,0.18,0.18
535300.0,0.06,0.0,0.18
535400.0,0.12,0.18,0.79
535500.0,0.18,0.12,0.12
535600.0,0.12,0.12,0.12
535700.0,0.12,0.18,0.12
535800.0,0.12,0.18,0.67
535900.0,0.12,0.06,0.18
536000.0,0.18,0.18,0.06
536100.0,0.18,0.18,0.12
536200.0,0.06,0.12,0.18
536300.0,0.06,0.06,1.16
536400.0,0.18,0.18,0.12
536500.0,0.18,0.18,0.12
536600.0,0.12,0.18,0.18
536700.0,0.06,0.0,1.89
536800.0,0.18,0.12,0.12
536900.0,0.18,0.12,0.06
537000.0,0.18,0.18,0.12
537100.0,0.12,0.12,0.12
537200.0,0.18,0.18,1.22
537300.0,0.24,0.18,0.37
537400.0,0.12,0.12,0.12
537500.0,0.18,0.18,0.18
537600.0,0.12,0.18,0.12
537700.0,0.18,0.12,0.12
537800.0,0.18,0.18,0.18
537900.0,0.18,0.12,0.12
538000.0,0.12,0.18,0.37
538100.0,0.18,0.18,0.31
538200.0,0.18,0.18,0.49
538300.0,0.12,0.12,0.12
538400.0,0.18,0.18,0.12
538500.0,0.18,0.18,0.12
538600.0,0.18,0.18,0.49
538700.0,0.18,0.18,0.12
538800.0,0.12,0.18,0.12
538900.0,0.12,0.18,0.12
539000.0,0.18,0.12,0.12
539100.0,0.12,0.18,0.12
539200.0,0.12,0.18,0.79
539300.0,0.12,0.12,0.12
539400.0,0.18,0.18,0.06
539500.0,0.18,0.18,0.12
539600.0,0.12,0.12,0.12
539700.0,0.18,0.18,0.12
539800.0,0.18,0.18,0.12
539900.0,0.12,0.18,0.49
540000.0,0.12,0.18,0.37
540100.0,0.06,0.12,0.12
540200.0,0.18,0.18,0.12
540300.0,0.12,0.12,0.12
540400.0,0.18,0.18,0.12
540500.0,0.18,0.18,0.12
540600.0,0.18,0.18,0.18
540700.0,0.12,0.18,0.12
540800.0,0.12,0.12,0.24
540900.0,0.18,0.18,0.12
541000.0,0.12,0.18,0.06
541100.0,0.12,0.12,0.12
541200.0,0.12,0.12,0.12
541300.0,0.18,0.18,0.12
541400.0,0.12,0.18,0.12
541500.0,0.18,0.18,0.12
541600.0,0.12,0.12,0.12
541700.0,0.12,0.18,0.12
541800.0,0.12,0.18,0.18
541900.0,0.18,0.18,0.12
542000.0,0.18,0.18,0.12
542100.0,0.18,0.18,0.12
542200.0,0.12,0.12,0.18
542300.0,0.18,0.12,0.61
542400.0,0.12,0.18,0.12
542500.0,0.24,0.18,0.12
542600.0,0.18,0.18,0.12
542700.0,0.18,0.18,0.12
542800.0,0.18,0.18,0.12
542900.0,0.12,0.18,0.12
543000.0,0.18,0.18,0.12
543100.0,0.12,0.12,0.12
543200.0,0.18,0.18,0.12
543300.0,0.18,0.18,0.18
543400.0,0.18,0.18,0.12
543500.0,0.12,0.12,0.12
543600.0,0.18,0.24,0.18
543700.0,0.12,0.12,0.12
543800.0,0.12,0.12,0.12
543900.0,0.18,0.24,0.12
544000.0,0.12,0.0,0.12
544100.0,0.18,0.18,0.18
544200.0,0.18,0.18,0.18
544300.0,0.12,0.06,0.12
544400.0,0.18,0.18,0.06
544500.0,0.12,0.12,0.12
544600.0,0.12,0.12,0.12
544700.0,0.18,0.18,0.12
544800.0,0.18,0.12,0.18
544900.0,0.18,0.18,0.12
545000.0,0.18,0.18,0.12
545100.0,0.12,0.0,0.12
545200.0,0.31,0.37,0.12
545300.0,0.12,0.0,0.12
545400.0,0.18,0.12,0.12
545500.0,0.18,0.24,0.18
545600.0,0.12,0.06,0.12
545700.0,0.18,0.18,0.12
545800.0,0.18,0.18,0.12
545900.0,0.12,0.06,0.12
546000.0,0.12,0.18,0.12
546100.0,0.12,0.12,0.12
546200.0,0.18,0.12,0.12
546300.0,0.18,0.18,0.12
546400.0,0.18,0.18,0.12
546500.0,0.12,0.12,0.18
546600.0,0.18,0.18,0.18
546700.0,0.18,0.18,0.12
546800.0,0.18,0.18,0.18
546900.0,0.18,0.12,0.12
547000.0,0.12,0.12,0.12
547100.0,0.18,0.18,0.12
547200.0,0.18,0.18,0.12
547300.0,0.12,0.18,0.12
547400.0,0.12,0.12,0.12
547500.0,0.18,0.18,0.12
547600.0,0.12,0.12,0.12
547700.0,0.12,0.18,0.12
547800.0,0.18,0.12,0.12
547900.0,0.12,0.18,0.18
548000.0,0.18,0.18,0.12
548100.0,0.12,0.12,0.12
548200.0,0.18,0.18,0.12
548300.0,0.12,0.18,0.12
548400.0,0.12,0.12,0.12
548500.0,0.18,0.12,0.12
548600.0,0.18,0.18,0.12
548700.0,0.12,0.18,0.12
548800.0,0.18,0.18,0.12
548900.0,0.12,0.12,0.12
549000.0,0.18,0.12,0.12
549100.0,0.18,0.18,0.12
549200.0,0.18,0.12,0.18
549300.0,0.18,0.18,0.12
549400.0,0.18,0.18,0.12
549500.0,0.12,0.18,0.12
549600.0,0.12,0.12,0.12
549700.0,0.12,0.18,0.12
549800.0,0.18,0.18,0.12
549900.0,0.06,0.12,0.12
550000.0,0.12,0.18,0.12
550100.0,0.12,0.12,0.12
550200.0,0.18,0.12,0.12
550300.0,0.12,0.12,0.12
550400.0,0.18,0.18,0.12
550500.0,0.12,0.12,0.18
550600.0,0.12,0.18,0.12
550700.0,0.12,0.12,0.12
550800.0,0.18,0.18,0.12
550900.0,0.18,0.18,0.12
551000.0,0.18,0.18,0.12
551100.0,0.12,0.18,0.12
551200.0,0.18,0.12,0.12
551300.0,0.12,0.18,0.12
551400.0,0.12,0.12,0.12
551500.0,0.18,0.12,0.12
551600.0,0.18,0.18,0.12
551700.0,0.18,0.18,0.12
551800.0,0.18,0.18,0.12
551900.0,0.12,0.12,0.18
552000.0,0.18,0.18,0.12
552100.0,0.12,0.18,0.12
552200.0,0.18,0.12,0.12
552300.0,0.18,0.12,0.12
552400.0,0.18,0.18,0.12
552500.0,0.12,0.12,0.12
552600.0,0.12,0.12,0.12
552700.0,0.18,0.18,0.12
552800.0,0.12,0.12,0.12
552900.0,0.12,0.18,0.12
553000.0,0.12,0.18,0.12
553100.0,0.12,0.18,0.12
553200.0,0.18,0.12,0.12
553300.0,0.18,0.24,0.12
553400.0,0.12,0.12,0.18
553500.0,0.18,0.18,0.12
553600.0,0.12,0.18,0.12
553700.0,0.18,0.18,0.12
553800.0,0.18,0.18,0.12
553900.0,0.12,0.18,0.12
554000.0,0.12,0.06,0.12
554100.0,0.18,0.18,0.12
554200.0,0.18,0.18,0.12
554300.0,0.12,0.12,0.12
554400.0,0.18,0.18,0.12
554500.0,0.12,0.12,0.12
554600.0,0.24,0.18,0.12
554700.0,0.12,0.12,0.12
554800.0,0.12,0.12,0.12
554900.0,0.18,0.18,0.12
555000.0,0.18,0.12,0.18
555100.0,0.18,0.18,0.12
555200.0,0.12,0.18,0.12
555300.0,0.12,0.12,0.12
555400.0,0.18,0.18,0.12
555500.0,0.18,0.18,0.12
555600.0,0.18,0.18,0.12
555700.0,0.18,0.18,0.06
555800.0,0.12,0.12,0.12
555900.0,0.12,0.18,0.12
556000.0,0.18,0.18,0.12
556100.0,0.12,0.12,0.12
556200.0,0.12,0.18,0.12
556300.0,0.12,0.18,0.18
556400.0,0.12,0.12,0.12
556500.0,0.18,0.18,0.18
556600.0,0.12,0.18,0.12
556700.0,0.12,0.12,0.12
556800.0,0.12,0.18,0.12
556900.0,0.12,0.12,0.18
557000.0,0.18,0.18,0.06
557100.0,0.18,0.18,0.12
557200.0,0.12,0.12,0.12
557300.0,0.12,0.18,0.12
557400.0,0.18,0.12,0.12
557500.0,0.12,0.12,0.12
557600.0,0.12,0.18,0.12
557700.0,0.12,0.12,0.12
557800.0,0.12,0.12,0.12
557900.0,0.18,0.18,0.12
558000.0,0.12,0.18,0.12
558100.0,0.12,0.18,0.12
558200.0,0.18,0.18,0.12
558300.0,0.12,0.12,0.12
558400.0,0.24,0.12,0.12
558500.0,0.18,0.18,0.12
558600.0,0.12,0.18,0.12
558700.0,0.18,0.12,0.12
558800.0,0.18,0.18,0.12
558900.0,0.18,0.18,0.12
559000.0,0.12,0.12,0.12
559100.0,0.18,0.12,0.12
559200.0,0.18,0.18,0.18
559300.0,0.12,0.18,0.12
559400.0,0.12,0.18,0.12
559500.0,0.18,0.12,0.18
559600.0,0.12,0.18,0.12
559700.0,0.12,0.18,0.12
559800.0,0.12,0.12,0.12
559900.0,0.12,0.12,0.18
560000.0,0.18,0.18,0.18
560100.0,0.18,0.18,0.12
560200.0,0.18,0.12,0.12
560300.0,0.18,0.18,0.12
560400.0,0.18,0.12,0.18
560500.0,0.12,0.18,0.12
560600.0,0.18,0.18,0.12
560700.0,0.12,0.18,0.12
560800.0,0.18,0.18,0.06
560900.0,0.18,0.18,0.12
561000.0,0.12,0.12,0.12
561100.0,0.18,0.12,0.12
561200.0,0.12,0.12,0.18
561300.0,0.12,0.18,0.12
561400.0,0.18,0.12,0.12
561500.0,0.18,0.18,0.12
561600.0,0.12,0.12,0.12
561700.0,0.12,0.12,0.12
561800.0,0.12,0.12,0.12
561900.0,0.18,0.12,0.12
562000.0,0.12,0.12,0.12
562100.0,0.12,0.12,0.12
562200.0,0.12,0.18,0.12
562300.0,0.18,0.18,0.12
562400.0,0.12,0.12,0.12
562500.0,0.18,0.18,0.06
562600.0,0.18,0.12,0.12
562700.0,0.18,0.12,0.12
562800.0,0.12,0.12,0.12
562900.0,0.18,0.18,0.12
563000.0,0.18,0.18,0.12
563100.0,0.18,0.12,0.12
563200.0,0.18,0.18,0.12
563300.0,0.12,0.12,0.12
563400.0,0.12,0.12,0.12
563500.0,0.18,0.18,0.12
563600.0,0.18,0.18,0.06
563700.0,0.12,0.12,0.12
563800.0,0.18,0.12,0.12
563900.0,0.12,0.12,0.12
564000.0,0.12,0.12,0.12
564100.0,0.18,0.12,0.12
564200.0,0.12,0.12,0.12
564300.0,0.12,0.12,0.12
564400.0,0.18,0.18,0.12
564500.0,0.18,0.18,0.12
564600.0,0.12,0.12,0.12
564700.0,0.12,0.18,0.12
564800.0,0.06,0.12,0.12
564900.0,0.12,0.18,0.12
565000.0,0.12,0.12,0.12
565100.0,0.18,0.18,0.12
565200.0,0.18,0.18,0.12
565300.0,0.18,0.12,0.12
565400.0,0.12,0.12,0.18
565500.0,0.12,0.18,0.12
565600.0,0.18,0.18,0.12
565700.0,0.18,0.18,0.12
565800.0,0.18,0.12,0.06
565900.0,0.18,0.18,0.12
566000.0,0.18,0.12,0.12
566100.0,0.18,0.18,0.12
566200.0,0.18,0.18,0.12
566300.0,0.18,0.18,0.12
566400.0,0.12,0.12,0.18
566500.0,0.12,0.18,0.12
566600.0,0.18,0.12,0.12
566700.0,0.18,0.18,0.12
566800.0,0.18,0.18,0.06
566900.0,0.12,0.18,0.12
567000.0,0.12,0.18,0.12
567100.0,0.12,0.12,0.12
567200.0,0.12,0.12,0.12
567300.0,0.12,0.18,0.12
567400.0,0.12,0.12,0.12
567500.0,0.12,0.18,0.12
567600.0,0.06,0.12,0.12
567700.0,0.18,0.12,0.18
567800.0,0.18,0.18,0.12
567900.0,0.12,0.12,0.12
568000.0,0.18,0.12,0.12
568100.0,0.18,0.18,0.12
568200.0,0.12,0.18,0.12
568300.0,0.18,0.18,0.12
568400.0,0.24,0.18,0.12
568500.0,0.12,0.12,0.12
568600.0,0.18,0.18,0.12
568700.0,0.18,0.18,0.12
568800.0,0.18,0.12,0.06
568900.0,0.18,0.18,0.12
569000.0,0.12,0.18,0.12
569100.0,0.18,0.12,0.12
569200.0,0.18,0.18,0.12
569300.0,0.12,0.18,0.12
569400.0,0.18,0.18,0.12
569500.0,0.18,0.18,0.12
569600.0,0.12,0.18,0.12
569700.0,0.18,0.18,0.12
569800.0,0.12,0.12,0.12
569900.0,0.18,0.18,0.12
570000.0,0.12,0.18,0.18
570100.0,0.18,0.12,0.12
570200.0,0.18,0.18,0.12
570300.0,0.12,0.18,0.18
570400.0,0.18,0.18,0.18
570500.0,0.18,0.18,0.12
570600.0,0.12,0.12,0.18
570700.0,0.18,0.18,0.12
570800.0,0.18,0.12,0.12
570900.0,0.12,0.18,0.12
571000.0,0.18,0.18,0.06
571100.0,0.18,0.18,0.12
571200.0,0.18,0.12,0.12
571300.0,0.18,0.18,0.12
571400.0,0.18,0.18,0.12
571500.0,0.12,0.12,0.18
571600.0,0.18,0.18,0.18
571700.0,0.18,0.18,0.06
571800.0,0.12,0.12,0.12
571900.0,0.18,0.24,0.12
572000.0,0.12,0.18,0.12
572100.0,0.12,0.18,0.12
572200.0,0.18,0.18,0.12
572300.0,0.06,0.12,0.12
572400.0,0.12,0.12,0.12
572500.0,0.18,0.24,0.12
572600.0,0.12,0.06,0.12
572700.0,0.18,0.18,0.12
572800.0,0.12,0.18,0.12
572900.0,0.12,0.06,0.12
573000.0,0.18,0.24,0.12
573100.0,0.18,0.12,0.12
573200.0,0.18,0.18,0.18
573300.0,0.18,0.18,0.12
573400.0,0.18,0.18,0.12
573500.0,0.18,0.18,0.18
573600.0,0.12,0.18,0.12
573700.0,0.18,0.18,0.12
573800.0,0.12,0.18,0.12
573900.0,0.18,0.18,0.06
574000.0,0.18,0.12,0.12
574100.0,0.18,0.18,0.12
574200.0,0.12,0.18,0.12
574300.0,0.12,0.12,0.12
574400.0,0.12,0.18,0.12
574500.0,0.12,0.12,0.12
574600.0,0.18,0.18,0.12
574700.0,0.12,0.18,0.12
574800.0,0.12,0.12,0.12
574900.0,0.18,0.18,0.12
575000.0,0.12,0.18,0.12
575100.0,0.18,0.18,0.18
575200.0,0.18,0.18,0.18
575300.0,0.12,0.12,0.12
575400.0,0.18,0.18,0.12
575500.0,0.12,0.18,0.12
575600.0,0.12,0.12,0.12
575700.0,0.12,0.18,0.12
575800.0,0.12,0.12,0.12
575900.0,0.12,0.12,0.12
576000.0,0.18,0.18,0.12
576100.0,0.18,0.12,0.12
576200.0,0.18,0.18,0.12
576300.0,0.18,0.18,0.12
576400.0,0.12,0.06,0.12
576500.0,0.18,0.18,0.12
576600.0,0.12,0.12,0.12
576700.0,0.18,0.18,0.06
576800.0,0.12,0.18,0.12
576900.0,0.18,0.18,0.12
577000.0,0.12,0.18,0.12
577100.0,0.18,0.18,0.12
577200.0,0.12,0.12,0.12
577300.0,0.18,0.18,0.12
577400.0,0.12,0.18,0.12
577500.0,0.18,0.12,0.12
577600.0,0.18,0.18,0.12
577700.0,0.18,0.12,0.12
577800.0,0.12,0.12,0.12
577900.0,0.18,0.18,0.12
578000.0,0.12,0.18,0.12
578100.0,0.18,0.18,0.12
578200.0,0.18,0.18,0.12
578300.0,0.12,0.12,0.12
578400.0,0.18,0.12,0.12
578500.0,0.18,0.18,0.12
578600.0,0.18,0.18,0.12
578700.0,0.12,0.18,0.18
578800.0,0.18,0.18,0.18
578900.0,0.12,0.12,0.06
579000.0,0.18,0.18,0.12
579100.0,0.12,0.18,0.12
579200.0,0.12,0.12,0.12
579300.0,0.18,0.18,0.12
579400.0,0.12,0.12,0.12
579500.0,0.12,0.12,0.12
579600.0,0.18,0.18,0.12
579700.0,0.18,0.18,0.12
579800.0,0.12,0.12,0.12
579900.0,0.12,0.18,0.18
580000.0,0.18,0.12,0.12
580100.0,0.12,0.12,0.12
580200.0,0.18,0.18,0.12
580300.0,0.18,0.12,0.12
580400.0,0.18,0.12,0.12
580500.0,0.18,0.18,0.12
580600.0,0.12,0.12,0.12
580700.0,0.18,0.18,0.12
580800.0,0.18,0.12,0.12
580900.0,0.12,0.18,0.12
581000.0,0.18,0.24,0.12
581100.0,0.18,0.12,0.12
581200.0,0.18,0.18,0.12
581300.0,0.18,0.12,0.12
581400.0,0.12,0.12,0.12
581500.0,0.12,0.18,0.18
581600.0,0.18,0.18,0.12
581700.0,0.12,0.12,0.18
581800.0,0.18,0.18,0.06
581900.0,0.18,0.12,0.12
582000.0,0.12,0.12,0.12
582100.0,0.18,0.18,0.12
582200.0,0.12,0.12,0.12
582300.0,0.18,0.12,0.12
582400.0,0.18,0.18,0.12
582500.0,0.18,0.12,0.12
582600.0,0.18,0.12,0.12
582700.0,0.18,0.18,0.12
582800.0,0.18,0.18,0.12
582900.0,0.12,0.12,0.12
583000.0,0.18,0.18,0.12
583100.0,0.18,0.18,0.12
583200.0,0.18,0.12,0.06
583300.0,0.18,0.18,0.12
583400.0,0.18,0.18,0.12
583500.0,0.12,0.12,0.12
583600.0,0.18,0.18,0.12
583700.0,0.18,0.18,0.18
583800.0,0.18,0.12,0.12
583900.0,0.12,0.12,0.12
584000.0,0.18,0.18,0.12
584100.0,0.12,0.12,0.12
584200.0,0.18,0.18,0.12
584300.0,0.18,0.18,0.12
584400.0,0.18,0.18,0.12
584500.0,0.12,0.18,0.12
584600.0,0.18,0.12,0.12
584700.0,0.12,0.12,0.18
584800.0,0.12,0.12,0.18
584900.0,0.12,0.12,0.12
585000.0,0.12,0.12,0.12
585100.0,0.12,0.12,0.12
585200.0,0.18,0.12,0.12
585300.0,0.12,0.12,0.12
585400.0,0.18,0.18,0.12
585500.0,0.12,0.12,0.12
585600.0,0.12,0.12,0.12
585700.0,0.12,0.18,0.12
585800.0,0.12,0.18,0.12
585900.0,0.18,0.18,0.12
586000.0,0.12,0.18,0.12
586100.0,0.12,0.18,0.12
586200.0,0.12,0.18,0.18
586300.0,0.18,0.18,0.12
586400.0,0.12,0.18,0.12
586500.0,0.12,0.18,0.12
586600.0,0.18,0.18,0.12
586700.0,0.18,0.18,0.18
586800.0,0.12,0.18,0.12
586900.0,0.12,0.12,0.12
587000.0,0.12,0.18,0.12
587100.0,0.18,0.12,0.18
587200.0,0.12,0.12,0.12
587300.0,0.18,0.18,0.18
587400.0,0.12,0.18,0.12
587500.0,0.12,0.18,0.12
587600.0,0.18,0.18,0.12
587700.0,0.12,0.12,0.12
587800.0,0.12,0.18,0.12
587900.0,0.18,0.18,0.12
588000.0,0.12,0.12,0.12
588100.0,0.18,0.18,0.12
588200.0,4.46,41.69,-44.37
588300.0,-6.84,-23.38,40.1
588400.0,1.1,-54.75,-5.37
588500.0,1.77,2.32,19.47
588600.0,-16.72,-97.29,-270.81
588700.0,44.86,-52.12,-18.43
588800.0,67.5,-86.49,-19.59
588900.0,-4.88,69.03,-263.49
589000.0,-10.8,153.56,-112.98
589100.0,-150.15,231.51,-66.71
589200.0,-352.23,103.15,-82.52
589300.0,-128.48,201.6,-154.72
589400.0,-26.79,104.61,-101.56
589500.0,30.46,-88.26,-135.07
589600.0,114.14,-329.53,-30.4
589700.0,64.27,-21.67,31.43
589800.0,39.61,78.37,56.03
589900.0,-14.1,136.78,52.8
590000.0,-78.55,146.79,1.4
590100.0,-83.68,112.85,-33.02
590200.0,-35.16,17.03,-50.66
590300.0,86.73,-131.84,-94.6
590400.0,81.91,-205.08,-5.49
590500.0,37.35,6.29,56.15
590600.0,-1.28,83.56,79.1
590700.0,-35.71,121.64,68.05
590800.0,-67.38,110.41,-0.18
590900.0,-15.63,-1.34,-110.84
591000.0,57.25,-106.81,-120.97
591100.0,187.13,-182.8,-347.41
591200.0,58.59,9.46,-135.44
591300.0,72.08,48.58,-95.95
591400.0,79.41,-183.65,-81.91
591500.0,130.92,-21.06,-105.1
591600.0,-42.05,30.21,72.2
591700.0,-42.3,210.57,11.41
591800.0,-41.14,49.32,-155.27
591900.0,-130.8,-17.27,-132.32
592000.0,16.85,-211.43,19.1
592100.0,150.94,-119.2,121.22
592200.0,57.68,237.49,28.44
592300.0,-97.23,-17.27,-77.64
592400.0,-0.61,-165.04,15.99
592500.0,22.4,243.16,-33.02
592600.0,-15.01,-81.42,-35.77
592700.0,-28.93,164.79,-5.0
592800.0,-78.8,-27.53,47.3
592900.0,-91.86,-25.94,146.91
593000.0,14.28,96.92,268.86
593100.0,25.51,127.08,24.23
593200.0,215.33,-88.5,-131.59
593300.0,266.24,-179.57,-181.64
593400.0,101.99,-153.08,-12.02
593500.0,112.49,73.12,-99.49
593600.0,-102.29,-56.7,-3.54
593700.0,196.29,59.14,21.85
593800.0,102.48,90.82,-37.17
593900.0,-75.74,-26.67,-26.37
594000.0,-45.17,-81.79,113.65
594100.0,60.18,150.82,49.19
594200.0,107.36,3.48,-97.72
594300.0,34.61,-130.43,-38.21
594400.0,-17.58,-134.64,85.02
594500.0,90.94,65.55,92.59
594600.0,213.2,91.25,-187.81
594700.0,-51.82,-11.29,-84.59
594800.0,-71.35,-96.98,13.98
594900.0,188.54,-80.75,89.78
595000.0,145.08,65.37,31.25
595100.0,7.02,93.26,-72.39
595200.0,11.41,-91.98,-87.34
595300.0,-8.79,-108.15,58.9
595400.0,27.71,-90.45,148.38
595500.0,125.37,45.47,46.08
595600.0,141.54,-21.67,-134.89
595700.0,-28.69,-70.31,-37.05
595800.0,-115.3,-44.74,108.89
595900.0,-18.01,22.64,64.21
596000.0,51.76,47.12,-62.56
596100.0,36.19,30.33,-67.44
596200.0,-117.49,-34.06,-26.43
596300.0,-1.46,-42.05,43.21
596400.0,-9.89,43.33,14.04
596500.0,42.97,74.58,-39.43
596600.0,44.01,2.26,-24.05
596700.0,53.53,-105.59,104.13
596800.0,20.94,4.15,55.11
596900.0,21.06,17.82,-36.19
597000.0,-5.19,-1.34,-53.53
597100.0,19.59,-41.93,51.94
597200.0,8.67,-58.84,108.58
597300.0,-4.82,119.14,12.7
597400.0,48.58,-33.75,-147.03
597500.0,-11.6,-83.8,-109.01
597600.0,-33.94,-58.04,110.66
597700.0,31.49,-4.88,115.6
597800.0,-16.78,74.34,-60.85
597900.0,-32.53,-151.49,-28.81
598000.0,-2.87,88.56,90.15
598100.0,39.12,35.89,16.6
598200.0,-31.31,33.39,-125.12
598300.0,-10.44,-146.18,5.55
598400.0,-28.14,41.2,99.79
598500.0,16.54,101.01,-35.28
598600.0,12.76,66.71,-159.61
598700.0,-71.17,-77.33,-56.34
598800.0,-0.55,-4.33,216.06
598900.0,20.87,138.18,19.65
599000.0,36.13,108.46,-152.22
599100.0,-7.45,-81.54,-105.22
599200.0,-161.38,-160.64,140.99
599300.0,10.74,263.79,50.54
599400.0,14.04,268.98,-136.23
599500.0,114.14,-157.35,-38.7
599600.0,-108.09,-177.67,104.25
599700.0,-41.63,216.86,-42.91
599800.0,-15.32,256.41,-92.04
599900.0,73.97,-204.41,-25.63
600000.0,24.54,-114.62,106.69
600100.0,-145.08,253.91,-3.6
600200.0,84.11,-3.91,-117.07
600300.0,31.86,-284.85,56.21
600400.0,26.79,13.37,88.26
600500.0,3.54,257.81,-22.22
600600.0,75.2,4.58,-136.6
600700.0,-80.14,-281.13,84.29
600800.0,46.2,81.91,88.87
600900.0,182.92,293.95,-49.5
601000.0,67.38,-82.03,-40.47
601100.0,-102.29,-190.0,108.22
601200.0,13.0,72.39,10.99
601300.0,207.09,155.82,-137.82
601400.0,-98.33,-223.14,70.5
601500.0,-43.82,69.7,1.28
601600.0,71.66,209.53,-91.43
601700.0,-92.16,-58.41,-34.79
601800.0,25.51,-68.42,180.91
601900.0,51.7,151.18,19.9
602000.0,14.89,147.4,-172.18
602100.0,-72.39,-276.49,103.58
602200.0,-27.16,116.7,8.97
602300.0,45.41,153.32,-117.25
602400.0,20.57,-317.99,73.24
602500.0,67.87,151.55,78.61
602600.0,69.09,145.14,-97.35
602700.0,1.83,-401.0,71.04
602800.0,82.89,90.64,157.96
602900.0,-25.88,185.06,-29.17
603000.0,15.81,-294.56,-42.72
603100.0,50.84,98.27,152.16
603200.0,50.11,205.69,-14.34
603300.0,63.66,-157.17,-99.91
603400.0,64.09,-39.0,180.48
603500.0,54.02,192.75,-38.33
603600.0,-28.75,38.51,-151.79
603700.0,22.09,-226.68,116.64
603800.0,-15.2,195.13,-18.43
603900.0,37.6,5.86,-135.31
604000.0,-44.01,-213.44,51.76
604100.0,-34.55,135.44,60.0
604200.0,5.31,174.56,-74.95
604300.0,-185.06,-142.27,-170.84
604400.0,21.12,31.37,259.95
604500.0,9.28,248.84,-92.29
604600.0,175.6,-283.02,-54.75
604700.0,-97.9,-5.31,220.52
604800.0,-8.24,231.14,-54.26
604900.0,174.19,-324.65,-114.14
605000.0,-82.7,59.02,280.7
605100.0,13.67,207.52,-22.71
605200.0,221.44,-149.96,-193.24
605300.0,-130.37,-48.71,238.22
605400.0,39.06,164.55,-3.17
605500.0,168.09,-129.76,-173.03
605600.0,-136.9,-81.91,196.72
605700.0,-0.49,123.05,-40.04
605800.0,270.39,-96.8,-166.32
605900.0,-102.54,-125.37,180.36
606000.0,-2.38,157.96,-5.19
606100.0,289.12,-82.28,-201.11
606200.0,-157.29,-105.47,186.71
606300.0,-18.01,201.29,12.15
606400.0,300.35,0.85,-230.04
606500.0,-212.04,-210.27,150.7
606600.0,-21.67,199.16,2.5
606700.0,241.76,76.29,-244.45
606800.0,-233.46,-153.99,138.31
606900.0,-25.02,189.58,91.25
607000.0,279.17,1.34,-254.82
607100.0,-194.52,-217.65,83.86
607200.0,47.73,180.36,200.26
607300.0,223.27,-18.25,-257.32
607400.0,-301.33,-166.08,193.79
607500.0,13.0,241.09,76.6
607600.0,198.97,193.79,-227.05
607700.0,54.87,-435.67,117.19
607800.0,8.12,146.73,199.58
607900.0,105.59,186.04,-120.79
608000.0,-41.99,-328.98,61.89
608100.0,-54.02,-3.05,242.8
608200.0,3.48,258.24,-40.34
608300.0,314.82,-223.51,-76.05
608400.0,-42.11,17.4,-55.11
608500.0,-35.28,72.81,-71.84
608600.0,-35.64,-10.74,-97.23
608700.0,-12.88,-62.99,21.36
608800.0,518.68,438.6,-6.47
608900.0,12.94,136.96,-104.8
609000.0,24.23,-7.87,6.1
609100.0,0.24,-0.18,-0.18
609200.0,0.61,0.06,0.12
609300.0,1.16,-0.49,0.12
609400.0,0.06,0.55,-0.12
609500.0,0.79,0.18,0.31
609600.0,0.0,0.18,0.24
609700.0,-0.24,0.18,0.24
609800.0,0.0,0.18,0.12
609900.0,0.43,0.18,0.12
610000.0,-0.92,0.49,0.06
610100.0,-0.37,0.37,0.12
610200.0,0.18,0.18,0.12
610300.0,0.18,0.12,0.18
610400.0,0.18,0.24,0.06
610500.0,0.18,0.18,0.12
610600.0,0.24,0.18,0.12
610700.0,0.18,0.12,0.12
610800.0,0.24,0.24,0.12
610900.0,0.12,0.12,0.12
611000.0,0.12,0.12,0.12
611100.0,0.06,0.06,0.18
611200.0,0.31,0.18,0.18
611300.0,0.24,0.18,0.12
611400.0,0.12,0.24,0.12
611500.0,0.12,0.24,0.06
611600.0,0.18,0.18,0.12
611700.0,0.24,0.12,0.12
611800.0,0.06,0.24,0.12
611900.0,0.18,0.12,0.12
612000.0,0.18,0.12,0.12
612100.0,0.24,0.18,0.18
612200.0,0.18,0.18,0.06
612300.0,0.12,0.12,0.12
612400.0,0.18,0.18,0.12
612500.0,0.06,0.18,0.12
612600.0,0.24,0.12,0.18
612700.0,0.12,0.18,0.12
612800.0,0.18,0.12,0.12
612900.0,0.18,0.18,0.12
613000.0,0.12,0.24,0.12
613100.0,0.18,0.18,0.12
613200.0,0.18,0.18,0.12
613300.0,0.12,0.12,0.18
613400.0,0.12,0.18,0.12
613500.0,0.12,0.12,0.12
613600.0,0.31,0.18,0.12
613700.0,0.0,0.24,0.12
613800.0,-0.06,0.24,0.12
613900.0,0.0,0.18,0.12
614000.0,0.31,0.12,0.12
614100.0,0.12,0.18,0.06
614200.0,0.24,0.18,0.12
614300.0,-0.12,0.18,0.18
614400.0,0.0,0.24,0.12
614500.0,0.0,0.24,0.12
614600.0,0.18,0.18,0.12
614700.0,0.0,0.12,0.12
614800.0,0.12,0.18,0.12
614900.0,0.06,0.18,0.06
615000.0,0.31,0.18,0.12
615100.0,0.18,0.18,0.12
615200.0,0.18,0.18,0.06
615300.0,0.12,0.24,0.12
615400.0,0.06,0.18,0.06
615500.0,0.43,0.12,0.12
615600.0,0.18,0.12,0.12
615700.0,0.12,0.18,0.12
615800.0,-0.24,0.31,0.12
615900.0,-0.43,0.43,0.18
616000.0,0.24,0.18,0.12
616100.0,0.31,0.18,0.06
616200.0,0.24,0.12,0.06
616300.0,0.31,0.18,0.06
616400.0,0.12,0.18,0.06
616500.0,0.18,0.12,0.06
616600.0,0.18,0.18,0.06
616700.0,0.12,0.18,0.12
616800.0,0.18,0.18,0.12
616900.0,-0.12,0.24,0.06
617000.0,0.24,0.18,0.12
617100.0,0.49,0.18,0.06
617200.0,0.06,0.31,0.06
617300.0,1.59,0.0,0.24
617400.0,0.61,-0.06,0.18
617500.0,0.0,0.18,0.18
617600.0,0.18,0.18,0.12
617700.0,-0.06,0.31,0.06
617800.0,0.31,0.18,0.31
617900.0,0.06,0.49,0.43
618000.0,0.43,0.06,0.12
618100.0,0.31,0.06,0.12
618200.0,0.06,0.18,0.18
618300.0,-0.24,0.24,0.06
618400.0,0.37,0.24,0.12
618500.0,0.43,0.12,0.12
618600.0,0.24,0.12,0.06
618700.0,0.24,0.12,0.0
618800.0,0.06,0.24,-0.06
618900.0,-0.12,0.24,0.06
619000.0,-0.18,0.31,0.18
619100.0,0.0,0.24,0.12
619200.0,0.24,0.18,0.06
619300.0,0.31,0.12,0.06
619400.0,0.24,0.06,0.06
619500.0,0.37,0.12,0.12
619600.0,1.89,0.0,0.31
619700.0,-0.31,0.24,0.06
619800.0,-0.18,0.31,0.06
619900.0,0.24,0.18,0.12
620000.0,0.18,0.18,0.12
620100.0,0.31,0.06,0.12
620200.0,0.18,0.18,0.12
620300.0,0.06,0.06,-0.12
620400.0,0.24,0.12,0.12
620500.0,-0.06,0.18,0.06
620600.0,0.18,0.12,0.06
620700.0,0.12,0.18,0.12
620800.0,0.37,0.12,0.06
620900.0,0.31,0.12,0.12
621000.0,0.12,0.12,0.06
621100.0,0.24,0.18,0.12
621200.0,0.18,0.18,0.12
621300.0,0.12,0.18,0.12
621400.0,0.18,0.18,0.06
621500.0,0.43,0.12,0.06
621600.0,0.18,0.12,0.12
621700.0,0.12,0.12,0.06
621800.0,0.18,0.18,0.12
621900.0,0.06,0.12,0.18
622000.0,0.31,0.06,0.12
622100.0,0.18,0.18,0.12
622200.0,0.37,0.18,0.06
622300.0,0.18,0.18,0.12
622400.0,0.06,0.18,0.12
622500.0,0.37,0.18,0.12
622600.0,0.18,0.12,0.12
622700.0,0.06,0.18,0.06
622800.0,-0.06,0.31,0.06
622900.0,0.31,0.24,0.12
623000.0,0.0,0.24,0.06
623100.0,0.12,0.24,0.12
623200.0,0.06,0.12,0.12
623300.0,0.18,0.31,0.0
623400.0,0.06,0.24,0.06
623500.0,0.06,0.24,0.12
623600.0,-0.12,0.24,0.18
623700.0,0.24,0.12,0.12
623800.0,0.61,0.18,0.0
623900.0,0.37,0.18,0.06
624000.0,0.24,0.06,0.12
624100.0,0.18,0.12,0.18
624200.0,0.18,0.49,0.12
624300.0,0.24,0.43,0.0
624400.0,0.18,0.0,0.12
624500.0,0.12,-0.12,0.12
624600.0,-0.18,0.37,0.24
624700.0,0.0,0.49,0.06
624800.0,1.28,0.12,0.18
624900.0,-0.37,-0.18,0.12
625000.0,0.0,-0.18,0.24
625100.0,-0.12,-0.31,0.55
625200.0,-0.18,0.0,0.18
625300.0,-0.92,0.67,0.67
625400.0,-2.56,5.49,11.72
625500.0,-1.1,0.73,-0.43
625600.0,-0.49,0.12,-0.06
